stim_category,stim_position,task_type,food_img,plant_img,block_type,is_task_switch,is_correct,rt,subj_id,trial,group
food,1,1,1,4,1,1,1,1528,cl_pu_2007_05_24_423_f,1,AN
food,2,1,2,1,1,0,1,1141,cl_pu_2007_05_24_423_f,2,AN
food,1,1,5,3,1,0,1,934,cl_pu_2007_05_24_423_f,3,AN
food,2,1,1,4,1,0,1,1519,cl_pu_2007_05_24_423_f,4,AN
food,1,1,8,3,1,0,1,1002,cl_pu_2007_05_24_423_f,5,AN
food,2,1,1,4,1,0,1,802,cl_pu_2007_05_24_423_f,6,AN
food,1,1,6,1,1,0,2,732,cl_pu_2007_05_24_423_f,7,AN
food,2,1,4,3,1,0,1,1267,cl_pu_2007_05_24_423_f,8,AN
food,1,1,6,7,1,0,1,1380,cl_pu_2007_05_24_423_f,9,AN
food,2,1,1,5,1,0,1,623,cl_pu_2007_05_24_423_f,10,AN
food,1,1,6,8,1,0,1,868,cl_pu_2007_05_24_423_f,11,AN
food,2,1,5,2,1,0,1,1379,cl_pu_2007_05_24_423_f,12,AN
food,1,1,4,4,1,0,1,758,cl_pu_2007_05_24_423_f,13,AN
food,2,1,5,1,1,0,1,816,cl_pu_2007_05_24_423_f,14,AN
food,1,1,3,6,1,0,1,594,cl_pu_2007_05_24_423_f,15,AN
food,2,1,5,1,1,0,1,610,cl_pu_2007_05_24_423_f,16,AN
food,1,1,4,2,1,0,1,576,cl_pu_2007_05_24_423_f,17,AN
food,2,1,1,7,1,0,2,663,cl_pu_2007_05_24_423_f,18,AN
food,1,1,8,8,1,0,2,1106,cl_pu_2007_05_24_423_f,19,AN
food,2,1,4,7,1,0,1,1613,cl_pu_2007_05_24_423_f,20,AN
food,1,1,8,3,1,0,1,800,cl_pu_2007_05_24_423_f,21,AN
food,2,1,6,8,1,0,1,693,cl_pu_2007_05_24_423_f,22,AN
food,1,1,8,7,1,0,1,2820,cl_pu_2007_05_24_423_f,23,AN
food,2,1,2,1,1,0,1,1143,cl_pu_2007_05_24_423_f,24,AN
food,1,1,6,7,1,0,1,843,cl_pu_2007_05_24_423_f,25,AN
food,2,1,3,5,1,0,1,727,cl_pu_2007_05_24_423_f,26,AN
food,1,1,8,2,1,0,1,477,cl_pu_2007_05_24_423_f,27,AN
food,2,1,2,5,1,0,1,375,cl_pu_2007_05_24_423_f,28,AN
food,1,1,6,8,1,0,1,540,cl_pu_2007_05_24_423_f,29,AN
food,2,1,4,7,1,0,1,407,cl_pu_2007_05_24_423_f,30,AN
food,1,1,8,4,1,0,1,351,cl_pu_2007_05_24_423_f,31,AN
food,2,1,4,5,1,0,1,325,cl_pu_2007_05_24_423_f,32,AN
food,1,1,2,1,1,0,2,446,cl_pu_2007_05_24_423_f,33,AN
food,2,1,8,5,1,0,1,1493,cl_pu_2007_05_24_423_f,34,AN
food,1,1,2,1,1,0,1,816,cl_pu_2007_05_24_423_f,35,AN
food,2,1,5,6,1,0,1,844,cl_pu_2007_05_24_423_f,36,AN
food,1,1,7,4,1,0,1,833,cl_pu_2007_05_24_423_f,37,AN
food,2,1,5,2,1,0,1,660,cl_pu_2007_05_24_423_f,38,AN
food,1,1,7,5,1,0,1,736,cl_pu_2007_05_24_423_f,39,AN
food,2,1,1,2,1,0,1,791,cl_pu_2007_05_24_423_f,40,AN
plants,3,2,8,3,2,1,1,1628,cl_pu_2007_05_24_423_f,41,AN
plants,4,2,3,1,2,0,2,662,cl_pu_2007_05_24_423_f,42,AN
plants,3,2,4,4,2,0,1,556,cl_pu_2007_05_24_423_f,43,AN
plants,4,2,7,3,2,0,1,468,cl_pu_2007_05_24_423_f,44,AN
plants,3,2,2,5,2,0,1,862,cl_pu_2007_05_24_423_f,45,AN
plants,4,2,3,8,2,0,1,868,cl_pu_2007_05_24_423_f,46,AN
plants,3,2,5,5,2,0,1,697,cl_pu_2007_05_24_423_f,47,AN
plants,4,2,8,6,2,0,1,1093,cl_pu_2007_05_24_423_f,48,AN
plants,3,2,6,8,2,0,1,816,cl_pu_2007_05_24_423_f,49,AN
plants,4,2,3,4,2,0,2,436,cl_pu_2007_05_24_423_f,50,AN
plants,3,2,1,5,2,0,1,597,cl_pu_2007_05_24_423_f,51,AN
plants,4,2,8,2,2,0,2,829,cl_pu_2007_05_24_423_f,52,AN
plants,3,2,5,3,2,0,2,572,cl_pu_2007_05_24_423_f,53,AN
plants,4,2,4,7,2,0,1,1060,cl_pu_2007_05_24_423_f,54,AN
plants,3,2,8,3,2,0,1,487,cl_pu_2007_05_24_423_f,55,AN
plants,4,2,1,6,2,0,1,369,cl_pu_2007_05_24_423_f,56,AN
plants,3,2,4,4,2,0,1,226,cl_pu_2007_05_24_423_f,57,AN
plants,4,2,8,8,2,0,1,272,cl_pu_2007_05_24_423_f,58,AN
plants,3,2,4,7,2,0,2,209,cl_pu_2007_05_24_423_f,59,AN
plants,4,2,6,4,2,0,2,428,cl_pu_2007_05_24_423_f,60,AN
plants,3,2,2,1,2,0,1,1138,cl_pu_2007_05_24_423_f,61,AN
plants,4,2,8,7,2,0,1,692,cl_pu_2007_05_24_423_f,62,AN
plants,3,2,7,4,2,0,1,791,cl_pu_2007_05_24_423_f,63,AN
plants,4,2,5,6,2,0,1,464,cl_pu_2007_05_24_423_f,64,AN
plants,3,2,1,4,2,0,1,410,cl_pu_2007_05_24_423_f,65,AN
plants,4,2,2,1,2,0,2,429,cl_pu_2007_05_24_423_f,66,AN
plants,3,2,8,5,2,0,1,1009,cl_pu_2007_05_24_423_f,67,AN
plants,4,2,4,6,2,0,1,700,cl_pu_2007_05_24_423_f,68,AN
plants,3,2,3,8,2,0,1,441,cl_pu_2007_05_24_423_f,69,AN
plants,4,2,6,3,2,0,1,556,cl_pu_2007_05_24_423_f,70,AN
plants,3,2,3,1,2,0,1,706,cl_pu_2007_05_24_423_f,71,AN
plants,4,2,1,3,2,0,1,717,cl_pu_2007_05_24_423_f,72,AN
plants,3,2,6,1,2,0,1,1206,cl_pu_2007_05_24_423_f,73,AN
plants,4,2,3,7,2,0,1,608,cl_pu_2007_05_24_423_f,74,AN
plants,3,2,8,1,2,0,1,567,cl_pu_2007_05_24_423_f,75,AN
plants,4,2,6,5,2,0,2,563,cl_pu_2007_05_24_423_f,76,AN
plants,3,2,1,8,2,0,1,689,cl_pu_2007_05_24_423_f,77,AN
plants,4,2,6,4,2,0,1,860,cl_pu_2007_05_24_423_f,78,AN
plants,3,2,3,6,2,0,1,602,cl_pu_2007_05_24_423_f,79,AN
plants,4,2,4,3,2,0,1,335,cl_pu_2007_05_24_423_f,80,AN
mixed,1,1,2,4,0,1,1,824,cl_pu_2007_05_24_423_f,81,AN
mixed,2,1,6,3,0,0,1,794,cl_pu_2007_05_24_423_f,82,AN
mixed,3,2,7,1,0,1,1,1517,cl_pu_2007_05_24_423_f,83,AN
mixed,4,2,3,6,0,0,1,642,cl_pu_2007_05_24_423_f,84,AN
mixed,1,1,8,4,0,1,2,2339,cl_pu_2007_05_24_423_f,85,AN
mixed,2,1,1,1,0,0,1,962,cl_pu_2007_05_24_423_f,86,AN
mixed,3,2,6,7,0,1,1,1923,cl_pu_2007_05_24_423_f,87,AN
mixed,4,2,2,4,0,0,1,2346,cl_pu_2007_05_24_423_f,88,AN
mixed,1,1,8,3,0,1,1,1460,cl_pu_2007_05_24_423_f,89,AN
mixed,2,1,1,4,0,0,1,852,cl_pu_2007_05_24_423_f,90,AN
mixed,3,2,8,8,0,1,1,1559,cl_pu_2007_05_24_423_f,91,AN
mixed,4,2,7,3,0,0,1,1464,cl_pu_2007_05_24_423_f,92,AN
mixed,1,1,4,1,0,1,1,1469,cl_pu_2007_05_24_423_f,93,AN
mixed,2,1,2,3,0,0,1,1325,cl_pu_2007_05_24_423_f,94,AN
mixed,3,2,5,4,0,1,1,2064,cl_pu_2007_05_24_423_f,95,AN
mixed,4,2,2,2,0,0,1,677,cl_pu_2007_05_24_423_f,96,AN
mixed,1,1,1,4,0,1,1,1689,cl_pu_2007_05_24_423_f,97,AN
mixed,2,1,8,6,0,0,1,2021,cl_pu_2007_05_24_423_f,98,AN
mixed,3,2,5,8,0,1,1,1496,cl_pu_2007_05_24_423_f,99,AN
mixed,4,2,6,3,0,0,1,697,cl_pu_2007_05_24_423_f,100,AN
mixed,1,1,3,8,0,1,2,896,cl_pu_2007_05_24_423_f,101,AN
mixed,2,1,8,3,0,0,2,844,cl_pu_2007_05_24_423_f,102,AN
mixed,3,2,5,8,0,1,1,894,cl_pu_2007_05_24_423_f,103,AN
mixed,4,2,3,7,0,0,1,687,cl_pu_2007_05_24_423_f,104,AN
mixed,1,1,2,6,0,1,1,1161,cl_pu_2007_05_24_423_f,105,AN
mixed,2,1,3,7,0,0,1,650,cl_pu_2007_05_24_423_f,106,AN
mixed,3,2,7,1,0,1,1,2051,cl_pu_2007_05_24_423_f,107,AN
mixed,4,2,2,4,0,0,1,568,cl_pu_2007_05_24_423_f,108,AN
mixed,1,1,8,8,0,1,1,1792,cl_pu_2007_05_24_423_f,109,AN
mixed,2,1,4,2,0,0,1,1255,cl_pu_2007_05_24_423_f,110,AN
mixed,3,2,7,4,0,1,1,3317,cl_pu_2007_05_24_423_f,111,AN
mixed,4,2,3,7,0,0,1,636,cl_pu_2007_05_24_423_f,112,AN
mixed,1,1,4,8,0,1,2,754,cl_pu_2007_05_24_423_f,113,AN
mixed,2,1,8,6,0,0,1,2967,cl_pu_2007_05_24_423_f,114,AN
mixed,3,2,3,2,0,1,1,1253,cl_pu_2007_05_24_423_f,115,AN
mixed,4,2,4,6,0,0,1,743,cl_pu_2007_05_24_423_f,116,AN
mixed,1,1,3,8,0,1,1,2102,cl_pu_2007_05_24_423_f,117,AN
mixed,2,1,2,2,0,0,1,2228,cl_pu_2007_05_24_423_f,118,AN
mixed,3,2,6,7,0,1,1,1977,cl_pu_2007_05_24_423_f,119,AN
mixed,4,2,3,2,0,0,1,1591,cl_pu_2007_05_24_423_f,120,AN
food,1,1,7,7,1,1,1,1770,fr_bo_1993_09_09_170_f,1,AN
food,2,1,2,4,1,0,1,2050,fr_bo_1993_09_09_170_f,2,AN
food,1,1,3,7,1,0,1,1229,fr_bo_1993_09_09_170_f,3,AN
food,2,1,8,5,1,0,1,839,fr_bo_1993_09_09_170_f,4,AN
food,1,1,6,7,1,0,1,848,fr_bo_1993_09_09_170_f,5,AN
food,2,1,7,8,1,0,1,718,fr_bo_1993_09_09_170_f,6,AN
food,1,1,3,3,1,0,1,763,fr_bo_1993_09_09_170_f,7,AN
food,2,1,7,2,1,0,1,963,fr_bo_1993_09_09_170_f,8,AN
food,1,1,4,5,1,0,1,1093,fr_bo_1993_09_09_170_f,9,AN
food,2,1,5,8,1,0,1,892,fr_bo_1993_09_09_170_f,10,AN
food,1,1,8,1,1,0,1,844,fr_bo_1993_09_09_170_f,11,AN
food,2,1,3,4,1,0,1,854,fr_bo_1993_09_09_170_f,12,AN
food,1,1,8,6,1,0,1,762,fr_bo_1993_09_09_170_f,13,AN
food,2,1,3,4,1,0,1,846,fr_bo_1993_09_09_170_f,14,AN
food,1,1,5,1,1,0,1,804,fr_bo_1993_09_09_170_f,15,AN
food,2,1,2,4,1,0,1,1014,fr_bo_1993_09_09_170_f,16,AN
food,1,1,6,1,1,0,1,655,fr_bo_1993_09_09_170_f,17,AN
food,2,1,8,8,1,0,1,649,fr_bo_1993_09_09_170_f,18,AN
food,1,1,5,7,1,0,1,613,fr_bo_1993_09_09_170_f,19,AN
food,2,1,6,3,1,0,1,570,fr_bo_1993_09_09_170_f,20,AN
food,1,1,3,5,1,0,1,563,fr_bo_1993_09_09_170_f,21,AN
food,2,1,8,1,1,0,1,526,fr_bo_1993_09_09_170_f,22,AN
food,1,1,7,8,1,0,1,729,fr_bo_1993_09_09_170_f,23,AN
food,2,1,2,7,1,0,1,828,fr_bo_1993_09_09_170_f,24,AN
food,1,1,7,5,1,0,1,818,fr_bo_1993_09_09_170_f,25,AN
food,2,1,6,2,1,0,1,1211,fr_bo_1993_09_09_170_f,26,AN
food,1,1,1,1,1,0,1,721,fr_bo_1993_09_09_170_f,27,AN
food,2,1,4,3,1,0,1,766,fr_bo_1993_09_09_170_f,28,AN
food,1,1,5,2,1,0,1,798,fr_bo_1993_09_09_170_f,29,AN
food,2,1,2,6,1,0,1,595,fr_bo_1993_09_09_170_f,30,AN
food,1,1,8,3,1,0,1,653,fr_bo_1993_09_09_170_f,31,AN
food,2,1,2,5,1,0,1,813,fr_bo_1993_09_09_170_f,32,AN
food,1,1,8,4,1,0,1,634,fr_bo_1993_09_09_170_f,33,AN
food,2,1,2,6,1,0,1,838,fr_bo_1993_09_09_170_f,34,AN
food,1,1,4,1,1,0,1,961,fr_bo_1993_09_09_170_f,35,AN
food,2,1,5,2,1,0,1,662,fr_bo_1993_09_09_170_f,36,AN
food,1,1,2,8,1,0,1,1108,fr_bo_1993_09_09_170_f,37,AN
food,2,1,6,5,1,0,1,565,fr_bo_1993_09_09_170_f,38,AN
food,1,1,5,7,1,0,1,1476,fr_bo_1993_09_09_170_f,39,AN
food,2,1,1,6,1,0,1,851,fr_bo_1993_09_09_170_f,40,AN
plants,3,2,6,5,2,1,2,2495,fr_bo_1993_09_09_170_f,41,AN
plants,4,2,2,2,2,0,1,1135,fr_bo_1993_09_09_170_f,42,AN
plants,3,2,5,7,2,0,1,567,fr_bo_1993_09_09_170_f,43,AN
plants,4,2,7,8,2,0,1,814,fr_bo_1993_09_09_170_f,44,AN
plants,3,2,6,6,2,0,1,706,fr_bo_1993_09_09_170_f,45,AN
plants,4,2,7,8,2,0,1,539,fr_bo_1993_09_09_170_f,46,AN
plants,3,2,2,5,2,0,1,667,fr_bo_1993_09_09_170_f,47,AN
plants,4,2,5,1,2,0,1,710,fr_bo_1993_09_09_170_f,48,AN
plants,3,2,4,8,2,0,1,486,fr_bo_1993_09_09_170_f,49,AN
plants,4,2,7,2,2,0,1,806,fr_bo_1993_09_09_170_f,50,AN
plants,3,2,8,5,2,0,1,460,fr_bo_1993_09_09_170_f,51,AN
plants,4,2,5,4,2,0,1,542,fr_bo_1993_09_09_170_f,52,AN
plants,3,2,8,6,2,0,1,607,fr_bo_1993_09_09_170_f,53,AN
plants,4,2,3,5,2,0,1,784,fr_bo_1993_09_09_170_f,54,AN
plants,3,2,6,6,2,0,1,479,fr_bo_1993_09_09_170_f,55,AN
plants,4,2,7,2,2,0,1,554,fr_bo_1993_09_09_170_f,56,AN
plants,3,2,6,8,2,0,1,498,fr_bo_1993_09_09_170_f,57,AN
plants,4,2,4,4,2,0,1,741,fr_bo_1993_09_09_170_f,58,AN
plants,3,2,2,1,2,0,1,720,fr_bo_1993_09_09_170_f,59,AN
plants,4,2,1,7,2,0,1,539,fr_bo_1993_09_09_170_f,60,AN
plants,3,2,7,4,2,0,1,692,fr_bo_1993_09_09_170_f,61,AN
plants,4,2,6,6,2,0,1,710,fr_bo_1993_09_09_170_f,62,AN
plants,3,2,7,8,2,0,1,762,fr_bo_1993_09_09_170_f,63,AN
plants,4,2,5,5,2,0,1,529,fr_bo_1993_09_09_170_f,64,AN
plants,3,2,6,2,2,0,1,880,fr_bo_1993_09_09_170_f,65,AN
plants,4,2,2,5,2,0,1,645,fr_bo_1993_09_09_170_f,66,AN
plants,3,2,7,8,2,0,1,518,fr_bo_1993_09_09_170_f,67,AN
plants,4,2,8,6,2,0,1,595,fr_bo_1993_09_09_170_f,68,AN
plants,3,2,3,4,2,0,1,616,fr_bo_1993_09_09_170_f,69,AN
plants,4,2,6,8,2,0,1,688,fr_bo_1993_09_09_170_f,70,AN
plants,3,2,7,6,2,0,1,868,fr_bo_1993_09_09_170_f,71,AN
plants,4,2,1,4,2,0,1,528,fr_bo_1993_09_09_170_f,72,AN
plants,3,2,4,5,2,0,1,497,fr_bo_1993_09_09_170_f,73,AN
plants,4,2,5,1,2,0,1,510,fr_bo_1993_09_09_170_f,74,AN
plants,3,2,8,7,2,0,1,549,fr_bo_1993_09_09_170_f,75,AN
plants,4,2,5,8,2,0,2,581,fr_bo_1993_09_09_170_f,76,AN
plants,3,2,1,4,2,0,1,694,fr_bo_1993_09_09_170_f,77,AN
plants,4,2,8,2,2,0,1,776,fr_bo_1993_09_09_170_f,78,AN
plants,3,2,6,5,2,0,1,516,fr_bo_1993_09_09_170_f,79,AN
plants,4,2,1,7,2,0,1,936,fr_bo_1993_09_09_170_f,80,AN
mixed,1,1,8,1,0,1,1,2557,fr_bo_1993_09_09_170_f,81,AN
mixed,2,1,3,2,0,0,1,2653,fr_bo_1993_09_09_170_f,82,AN
mixed,3,2,1,6,0,1,1,2167,fr_bo_1993_09_09_170_f,83,AN
mixed,4,2,7,4,0,0,1,921,fr_bo_1993_09_09_170_f,84,AN
mixed,1,1,6,7,0,1,1,1905,fr_bo_1993_09_09_170_f,85,AN
mixed,2,1,5,3,0,0,1,2102,fr_bo_1993_09_09_170_f,86,AN
mixed,3,2,1,4,0,1,1,2221,fr_bo_1993_09_09_170_f,87,AN
mixed,4,2,8,8,0,0,1,1988,fr_bo_1993_09_09_170_f,88,AN
mixed,1,1,6,5,0,1,1,1090,fr_bo_1993_09_09_170_f,89,AN
mixed,2,1,2,6,0,0,1,1397,fr_bo_1993_09_09_170_f,90,AN
mixed,3,2,4,5,0,1,1,1851,fr_bo_1993_09_09_170_f,91,AN
mixed,4,2,5,1,0,0,1,766,fr_bo_1993_09_09_170_f,92,AN
mixed,1,1,1,3,0,1,1,1843,fr_bo_1993_09_09_170_f,93,AN
mixed,2,1,4,1,0,0,1,1190,fr_bo_1993_09_09_170_f,94,AN
mixed,3,2,2,2,0,1,1,1842,fr_bo_1993_09_09_170_f,95,AN
mixed,4,2,8,5,0,0,1,533,fr_bo_1993_09_09_170_f,96,AN
mixed,1,1,3,3,0,1,1,1122,fr_bo_1993_09_09_170_f,97,AN
mixed,2,1,7,2,0,0,1,680,fr_bo_1993_09_09_170_f,98,AN
mixed,3,2,6,7,0,1,1,1272,fr_bo_1993_09_09_170_f,99,AN
mixed,4,2,7,1,0,0,1,676,fr_bo_1993_09_09_170_f,100,AN
mixed,1,1,3,8,0,1,1,2171,fr_bo_1993_09_09_170_f,101,AN
mixed,2,1,8,2,0,0,1,1684,fr_bo_1993_09_09_170_f,102,AN
mixed,3,2,2,1,0,1,1,1652,fr_bo_1993_09_09_170_f,103,AN
mixed,4,2,5,8,0,0,1,497,fr_bo_1993_09_09_170_f,104,AN
mixed,1,1,1,6,0,1,1,1021,fr_bo_1993_09_09_170_f,105,AN
mixed,2,1,5,1,0,0,1,1973,fr_bo_1993_09_09_170_f,106,AN
mixed,3,2,4,6,0,1,1,910,fr_bo_1993_09_09_170_f,107,AN
mixed,4,2,1,2,0,0,1,652,fr_bo_1993_09_09_170_f,108,AN
mixed,1,1,7,8,0,1,1,1441,fr_bo_1993_09_09_170_f,109,AN
mixed,2,1,5,1,0,0,1,983,fr_bo_1993_09_09_170_f,110,AN
mixed,3,2,3,4,0,1,1,1101,fr_bo_1993_09_09_170_f,111,AN
mixed,4,2,7,5,0,0,1,739,fr_bo_1993_09_09_170_f,112,AN
mixed,1,1,4,7,0,1,1,1064,fr_bo_1993_09_09_170_f,113,AN
mixed,2,1,7,5,0,0,1,713,fr_bo_1993_09_09_170_f,114,AN
mixed,3,2,5,4,0,1,1,1137,fr_bo_1993_09_09_170_f,115,AN
mixed,4,2,8,3,0,0,1,1116,fr_bo_1993_09_09_170_f,116,AN
mixed,1,1,6,2,0,1,1,1012,fr_bo_1993_09_09_170_f,117,AN
mixed,2,1,1,4,0,0,1,684,fr_bo_1993_09_09_170_f,118,AN
mixed,3,2,6,3,0,1,1,1678,fr_bo_1993_09_09_170_f,119,AN
mixed,4,2,2,8,0,0,1,917,fr_bo_1993_09_09_170_f,120,AN
food,1,1,4,2,1,1,1,3424,ma_za_2002_02_28_051_f,1,AN
food,2,1,5,8,1,0,1,2007,ma_za_2002_02_28_051_f,2,AN
food,1,1,2,3,1,0,1,1105,ma_za_2002_02_28_051_f,3,AN
food,2,1,5,7,1,0,1,1744,ma_za_2002_02_28_051_f,4,AN
food,1,1,8,5,1,0,2,3496,ma_za_2002_02_28_051_f,5,AN
food,2,1,6,7,1,0,1,994,ma_za_2002_02_28_051_f,6,AN
food,1,1,8,8,1,0,1,729,ma_za_2002_02_28_051_f,7,AN
food,2,1,3,4,1,0,1,956,ma_za_2002_02_28_051_f,8,AN
food,1,1,8,3,1,0,1,888,ma_za_2002_02_28_051_f,9,AN
food,2,1,2,6,1,0,1,1095,ma_za_2002_02_28_051_f,10,AN
food,1,1,6,2,1,0,1,928,ma_za_2002_02_28_051_f,11,AN
food,2,1,1,8,1,0,1,732,ma_za_2002_02_28_051_f,12,AN
food,1,1,6,7,1,0,1,946,ma_za_2002_02_28_051_f,13,AN
food,2,1,5,3,1,0,1,684,ma_za_2002_02_28_051_f,14,AN
food,1,1,7,6,1,0,1,830,ma_za_2002_02_28_051_f,15,AN
food,2,1,5,8,1,0,1,580,ma_za_2002_02_28_051_f,16,AN
food,1,1,4,6,1,0,1,955,ma_za_2002_02_28_051_f,17,AN
food,2,1,1,2,1,0,1,659,ma_za_2002_02_28_051_f,18,AN
food,1,1,6,4,1,0,2,648,ma_za_2002_02_28_051_f,19,AN
food,2,1,1,8,1,0,1,760,ma_za_2002_02_28_051_f,20,AN
food,1,1,8,1,1,0,1,907,ma_za_2002_02_28_051_f,21,AN
food,2,1,6,3,1,0,1,570,ma_za_2002_02_28_051_f,22,AN
food,1,1,5,6,1,0,1,514,ma_za_2002_02_28_051_f,23,AN
food,2,1,4,4,1,0,1,551,ma_za_2002_02_28_051_f,24,AN
food,1,1,6,2,1,0,1,669,ma_za_2002_02_28_051_f,25,AN
food,2,1,4,5,1,0,1,684,ma_za_2002_02_28_051_f,26,AN
food,1,1,1,3,1,0,1,888,ma_za_2002_02_28_051_f,27,AN
food,2,1,5,8,1,0,1,620,ma_za_2002_02_28_051_f,28,AN
food,1,1,6,3,1,0,1,623,ma_za_2002_02_28_051_f,29,AN
food,2,1,4,2,1,0,1,541,ma_za_2002_02_28_051_f,30,AN
food,1,1,7,4,1,0,1,926,ma_za_2002_02_28_051_f,31,AN
food,2,1,4,3,1,0,1,656,ma_za_2002_02_28_051_f,32,AN
food,1,1,7,1,1,0,1,687,ma_za_2002_02_28_051_f,33,AN
food,2,1,1,2,1,0,1,627,ma_za_2002_02_28_051_f,34,AN
food,1,1,6,3,1,0,1,590,ma_za_2002_02_28_051_f,35,AN
food,2,1,2,8,1,0,1,815,ma_za_2002_02_28_051_f,36,AN
food,1,1,3,7,1,0,1,806,ma_za_2002_02_28_051_f,37,AN
food,2,1,6,4,1,0,1,956,ma_za_2002_02_28_051_f,38,AN
food,1,1,4,6,1,0,1,887,ma_za_2002_02_28_051_f,39,AN
food,2,1,8,3,1,0,1,737,ma_za_2002_02_28_051_f,40,AN
plants,3,2,6,8,2,1,1,1947,ma_za_2002_02_28_051_f,41,AN
plants,4,2,7,7,2,0,1,1221,ma_za_2002_02_28_051_f,42,AN
plants,3,2,3,8,2,0,1,628,ma_za_2002_02_28_051_f,43,AN
plants,4,2,5,5,2,0,1,764,ma_za_2002_02_28_051_f,44,AN
plants,3,2,4,3,2,0,1,663,ma_za_2002_02_28_051_f,45,AN
plants,4,2,7,7,2,0,1,1373,ma_za_2002_02_28_051_f,46,AN
plants,3,2,2,6,2,0,1,1701,ma_za_2002_02_28_051_f,47,AN
plants,4,2,7,8,2,0,1,1071,ma_za_2002_02_28_051_f,48,AN
plants,3,2,3,6,2,0,1,612,ma_za_2002_02_28_051_f,49,AN
plants,4,2,8,5,2,0,1,554,ma_za_2002_02_28_051_f,50,AN
plants,3,2,7,8,2,0,1,440,ma_za_2002_02_28_051_f,51,AN
plants,4,2,2,5,2,0,1,429,ma_za_2002_02_28_051_f,52,AN
plants,3,2,1,1,2,0,1,811,ma_za_2002_02_28_051_f,53,AN
plants,4,2,5,2,2,0,1,648,ma_za_2002_02_28_051_f,54,AN
plants,3,2,7,5,2,0,1,623,ma_za_2002_02_28_051_f,55,AN
plants,4,2,8,7,2,0,1,735,ma_za_2002_02_28_051_f,56,AN
plants,3,2,2,3,2,0,1,701,ma_za_2002_02_28_051_f,57,AN
plants,4,2,3,5,2,0,1,665,ma_za_2002_02_28_051_f,58,AN
plants,3,2,4,2,2,0,1,762,ma_za_2002_02_28_051_f,59,AN
plants,4,2,7,1,2,0,1,703,ma_za_2002_02_28_051_f,60,AN
plants,3,2,6,7,2,0,1,657,ma_za_2002_02_28_051_f,61,AN
plants,4,2,7,6,2,0,1,703,ma_za_2002_02_28_051_f,62,AN
plants,3,2,6,3,2,0,1,917,ma_za_2002_02_28_051_f,63,AN
plants,4,2,5,5,2,0,1,649,ma_za_2002_02_28_051_f,64,AN
plants,3,2,7,7,2,0,1,511,ma_za_2002_02_28_051_f,65,AN
plants,4,2,5,6,2,0,1,551,ma_za_2002_02_28_051_f,66,AN
plants,3,2,1,5,2,0,1,370,ma_za_2002_02_28_051_f,67,AN
plants,4,2,4,4,2,0,1,701,ma_za_2002_02_28_051_f,68,AN
plants,3,2,5,8,2,0,1,888,ma_za_2002_02_28_051_f,69,AN
plants,4,2,4,5,2,0,1,552,ma_za_2002_02_28_051_f,70,AN
plants,3,2,8,3,2,0,1,661,ma_za_2002_02_28_051_f,71,AN
plants,4,2,3,4,2,0,1,1263,ma_za_2002_02_28_051_f,72,AN
plants,3,2,8,7,2,0,1,962,ma_za_2002_02_28_051_f,73,AN
plants,4,2,4,3,2,0,1,691,ma_za_2002_02_28_051_f,74,AN
plants,3,2,8,8,2,0,1,590,ma_za_2002_02_28_051_f,75,AN
plants,4,2,3,3,2,0,1,508,ma_za_2002_02_28_051_f,76,AN
plants,3,2,2,5,2,0,1,565,ma_za_2002_02_28_051_f,77,AN
plants,4,2,8,8,2,0,1,651,ma_za_2002_02_28_051_f,78,AN
plants,3,2,6,7,2,0,1,474,ma_za_2002_02_28_051_f,79,AN
plants,4,2,4,4,2,0,1,653,ma_za_2002_02_28_051_f,80,AN
mixed,1,1,6,1,0,1,1,1320,ma_za_2002_02_28_051_f,81,AN
mixed,2,1,1,3,0,0,3,5000,ma_za_2002_02_28_051_f,82,AN
mixed,3,2,3,8,0,1,1,1421,ma_za_2002_02_28_051_f,83,AN
mixed,4,2,5,7,0,0,2,1037,ma_za_2002_02_28_051_f,84,AN
mixed,1,1,4,2,0,1,1,2676,ma_za_2002_02_28_051_f,85,AN
mixed,2,1,3,6,0,0,1,2163,ma_za_2002_02_28_051_f,86,AN
mixed,3,2,1,5,0,1,2,1820,ma_za_2002_02_28_051_f,87,AN
mixed,4,2,7,4,0,0,2,1447,ma_za_2002_02_28_051_f,88,AN
mixed,1,1,8,5,0,1,1,1713,ma_za_2002_02_28_051_f,89,AN
mixed,2,1,5,1,0,0,1,2769,ma_za_2002_02_28_051_f,90,AN
mixed,3,2,1,3,0,1,1,1398,ma_za_2002_02_28_051_f,91,AN
mixed,4,2,7,2,0,0,2,1268,ma_za_2002_02_28_051_f,92,AN
mixed,1,1,4,8,0,1,1,1966,ma_za_2002_02_28_051_f,93,AN
mixed,2,1,6,1,0,0,1,882,ma_za_2002_02_28_051_f,94,AN
mixed,3,2,4,4,0,1,1,1529,ma_za_2002_02_28_051_f,95,AN
mixed,4,2,8,8,0,0,1,1266,ma_za_2002_02_28_051_f,96,AN
mixed,1,1,2,6,0,1,1,783,ma_za_2002_02_28_051_f,97,AN
mixed,2,1,7,1,0,0,1,1885,ma_za_2002_02_28_051_f,98,AN
mixed,3,2,6,7,0,1,1,883,ma_za_2002_02_28_051_f,99,AN
mixed,4,2,1,1,0,0,1,781,ma_za_2002_02_28_051_f,100,AN
mixed,1,1,4,4,0,1,1,1146,ma_za_2002_02_28_051_f,101,AN
mixed,2,1,1,1,0,0,1,706,ma_za_2002_02_28_051_f,102,AN
mixed,3,2,3,8,0,1,2,1193,ma_za_2002_02_28_051_f,103,AN
mixed,4,2,7,1,0,0,1,4274,ma_za_2002_02_28_051_f,104,AN
mixed,1,1,4,8,0,1,1,1303,ma_za_2002_02_28_051_f,105,AN
mixed,2,1,7,1,0,0,1,1378,ma_za_2002_02_28_051_f,106,AN
mixed,3,2,1,7,0,1,1,2608,ma_za_2002_02_28_051_f,107,AN
mixed,4,2,2,8,0,0,1,891,ma_za_2002_02_28_051_f,108,AN
mixed,1,1,6,2,0,1,1,1711,ma_za_2002_02_28_051_f,109,AN
mixed,2,1,2,1,0,0,1,856,ma_za_2002_02_28_051_f,110,AN
mixed,3,2,5,2,0,1,2,3542,ma_za_2002_02_28_051_f,111,AN
mixed,4,2,8,1,0,0,1,2704,ma_za_2002_02_28_051_f,112,AN
mixed,1,1,4,7,0,1,1,1875,ma_za_2002_02_28_051_f,113,AN
mixed,2,1,8,5,0,0,1,1186,ma_za_2002_02_28_051_f,114,AN
mixed,3,2,1,2,0,1,2,1888,ma_za_2002_02_28_051_f,115,AN
mixed,4,2,3,7,0,0,2,1523,ma_za_2002_02_28_051_f,116,AN
mixed,1,1,1,1,0,1,1,1809,ma_za_2002_02_28_051_f,117,AN
mixed,2,1,7,3,0,0,1,1268,ma_za_2002_02_28_051_f,118,AN
mixed,3,2,4,5,0,1,1,1525,ma_za_2002_02_28_051_f,119,AN
mixed,4,2,5,4,0,0,1,1405,ma_za_2002_02_28_051_f,120,AN
food,1,1,8,5,1,1,1,4474,ch_pi_2001_10_08_418_f,1,AN
food,2,1,4,6,1,0,1,2271,ch_pi_2001_10_08_418_f,2,AN
food,1,1,7,1,1,0,1,1620,ch_pi_2001_10_08_418_f,3,AN
food,2,1,4,8,1,0,1,1489,ch_pi_2001_10_08_418_f,4,AN
food,1,1,8,4,1,0,1,1433,ch_pi_2001_10_08_418_f,5,AN
food,2,1,3,5,1,0,1,1295,ch_pi_2001_10_08_418_f,6,AN
food,1,1,7,3,1,0,1,874,ch_pi_2001_10_08_418_f,7,AN
food,2,1,1,4,1,0,1,839,ch_pi_2001_10_08_418_f,8,AN
food,1,1,3,3,1,0,1,1116,ch_pi_2001_10_08_418_f,9,AN
food,2,1,4,6,1,0,1,899,ch_pi_2001_10_08_418_f,10,AN
food,1,1,6,2,1,0,1,1400,ch_pi_2001_10_08_418_f,11,AN
food,2,1,8,7,1,0,1,1190,ch_pi_2001_10_08_418_f,12,AN
food,1,1,7,1,1,0,1,750,ch_pi_2001_10_08_418_f,13,AN
food,2,1,6,2,1,0,1,1114,ch_pi_2001_10_08_418_f,14,AN
food,1,1,1,7,1,0,1,889,ch_pi_2001_10_08_418_f,15,AN
food,2,1,5,8,1,0,1,1913,ch_pi_2001_10_08_418_f,16,AN
food,1,1,4,5,1,0,1,902,ch_pi_2001_10_08_418_f,17,AN
food,2,1,6,3,1,0,1,1286,ch_pi_2001_10_08_418_f,18,AN
food,1,1,8,2,1,0,1,983,ch_pi_2001_10_08_418_f,19,AN
food,2,1,1,7,1,0,1,1274,ch_pi_2001_10_08_418_f,20,AN
food,1,1,5,4,1,0,1,956,ch_pi_2001_10_08_418_f,21,AN
food,2,1,1,2,1,0,1,1057,ch_pi_2001_10_08_418_f,22,AN
food,1,1,6,5,1,0,1,1168,ch_pi_2001_10_08_418_f,23,AN
food,2,1,2,1,1,0,1,1119,ch_pi_2001_10_08_418_f,24,AN
food,1,1,7,3,1,0,1,955,ch_pi_2001_10_08_418_f,25,AN
food,2,1,5,1,1,0,1,730,ch_pi_2001_10_08_418_f,26,AN
food,1,1,4,3,1,0,1,768,ch_pi_2001_10_08_418_f,27,AN
food,2,1,2,4,1,0,1,1453,ch_pi_2001_10_08_418_f,28,AN
food,1,1,8,5,1,0,1,1018,ch_pi_2001_10_08_418_f,29,AN
food,2,1,3,2,1,0,1,655,ch_pi_2001_10_08_418_f,30,AN
food,1,1,8,5,1,0,1,1171,ch_pi_2001_10_08_418_f,31,AN
food,2,1,5,8,1,0,1,937,ch_pi_2001_10_08_418_f,32,AN
food,1,1,7,5,1,0,1,778,ch_pi_2001_10_08_418_f,33,AN
food,2,1,3,4,1,0,1,718,ch_pi_2001_10_08_418_f,34,AN
food,1,1,2,6,1,0,1,931,ch_pi_2001_10_08_418_f,35,AN
food,2,1,1,2,1,0,1,705,ch_pi_2001_10_08_418_f,36,AN
food,1,1,5,5,1,0,1,924,ch_pi_2001_10_08_418_f,37,AN
food,2,1,4,3,1,0,1,714,ch_pi_2001_10_08_418_f,38,AN
food,1,1,6,4,1,0,1,1225,ch_pi_2001_10_08_418_f,39,AN
food,2,1,1,7,1,0,1,1368,ch_pi_2001_10_08_418_f,40,AN
plants,3,2,3,2,2,1,1,4625,ch_pi_2001_10_08_418_f,41,AN
plants,4,2,2,1,2,0,1,1160,ch_pi_2001_10_08_418_f,42,AN
plants,3,2,6,7,2,0,1,1301,ch_pi_2001_10_08_418_f,43,AN
plants,4,2,7,8,2,0,1,1087,ch_pi_2001_10_08_418_f,44,AN
plants,3,2,3,2,2,0,1,1145,ch_pi_2001_10_08_418_f,45,AN
plants,4,2,4,5,2,0,1,1021,ch_pi_2001_10_08_418_f,46,AN
plants,3,2,3,8,2,0,1,912,ch_pi_2001_10_08_418_f,47,AN
plants,4,2,1,5,2,0,1,756,ch_pi_2001_10_08_418_f,48,AN
plants,3,2,8,2,2,0,1,704,ch_pi_2001_10_08_418_f,49,AN
plants,4,2,7,6,2,0,1,932,ch_pi_2001_10_08_418_f,50,AN
plants,3,2,4,7,2,0,1,1022,ch_pi_2001_10_08_418_f,51,AN
plants,4,2,2,6,2,0,1,595,ch_pi_2001_10_08_418_f,52,AN
plants,3,2,8,7,2,0,1,460,ch_pi_2001_10_08_418_f,53,AN
plants,4,2,1,2,2,0,1,635,ch_pi_2001_10_08_418_f,54,AN
plants,3,2,3,1,2,0,1,692,ch_pi_2001_10_08_418_f,55,AN
plants,4,2,6,3,2,0,1,906,ch_pi_2001_10_08_418_f,56,AN
plants,3,2,8,7,2,0,1,995,ch_pi_2001_10_08_418_f,57,AN
plants,4,2,7,5,2,0,1,518,ch_pi_2001_10_08_418_f,58,AN
plants,3,2,8,3,2,0,1,850,ch_pi_2001_10_08_418_f,59,AN
plants,4,2,4,4,2,0,1,669,ch_pi_2001_10_08_418_f,60,AN
plants,3,2,2,3,2,0,1,524,ch_pi_2001_10_08_418_f,61,AN
plants,4,2,7,6,2,0,1,630,ch_pi_2001_10_08_418_f,62,AN
plants,3,2,8,2,2,0,1,795,ch_pi_2001_10_08_418_f,63,AN
plants,4,2,1,7,2,0,1,1701,ch_pi_2001_10_08_418_f,64,AN
plants,3,2,2,8,2,0,1,426,ch_pi_2001_10_08_418_f,65,AN
plants,4,2,5,6,2,0,1,1243,ch_pi_2001_10_08_418_f,66,AN
plants,3,2,4,2,2,0,1,710,ch_pi_2001_10_08_418_f,67,AN
plants,4,2,7,1,2,0,1,523,ch_pi_2001_10_08_418_f,68,AN
plants,3,2,1,5,2,0,1,825,ch_pi_2001_10_08_418_f,69,AN
plants,4,2,6,1,2,0,1,514,ch_pi_2001_10_08_418_f,70,AN
plants,3,2,3,6,2,0,1,545,ch_pi_2001_10_08_418_f,71,AN
plants,4,2,5,5,2,0,1,811,ch_pi_2001_10_08_418_f,72,AN
plants,3,2,2,8,2,0,1,484,ch_pi_2001_10_08_418_f,73,AN
plants,4,2,8,7,2,0,1,648,ch_pi_2001_10_08_418_f,74,AN
plants,3,2,7,5,2,0,1,421,ch_pi_2001_10_08_418_f,75,AN
plants,4,2,6,4,2,0,1,562,ch_pi_2001_10_08_418_f,76,AN
plants,3,2,7,3,2,0,1,550,ch_pi_2001_10_08_418_f,77,AN
plants,4,2,8,2,2,0,1,528,ch_pi_2001_10_08_418_f,78,AN
plants,3,2,2,5,2,0,1,689,ch_pi_2001_10_08_418_f,79,AN
plants,4,2,7,6,2,0,1,619,ch_pi_2001_10_08_418_f,80,AN
mixed,1,1,8,2,0,1,1,2519,ch_pi_2001_10_08_418_f,81,AN
mixed,2,1,1,4,0,0,1,1188,ch_pi_2001_10_08_418_f,82,AN
mixed,3,2,8,7,0,1,3,5000,ch_pi_2001_10_08_418_f,83,AN
mixed,4,2,3,2,0,0,1,1985,ch_pi_2001_10_08_418_f,84,AN
mixed,1,1,6,3,0,1,1,1592,ch_pi_2001_10_08_418_f,85,AN
mixed,2,1,3,7,0,0,1,940,ch_pi_2001_10_08_418_f,86,AN
mixed,3,2,1,5,0,1,1,1281,ch_pi_2001_10_08_418_f,87,AN
mixed,4,2,2,1,0,0,1,1109,ch_pi_2001_10_08_418_f,88,AN
mixed,1,1,7,4,0,1,1,1368,ch_pi_2001_10_08_418_f,89,AN
mixed,2,1,1,3,0,0,1,856,ch_pi_2001_10_08_418_f,90,AN
mixed,3,2,5,8,0,1,1,1011,ch_pi_2001_10_08_418_f,91,AN
mixed,4,2,4,2,0,0,1,899,ch_pi_2001_10_08_418_f,92,AN
mixed,1,1,7,1,0,1,1,1611,ch_pi_2001_10_08_418_f,93,AN
mixed,2,1,4,3,0,0,1,746,ch_pi_2001_10_08_418_f,94,AN
mixed,3,2,1,6,0,1,1,1013,ch_pi_2001_10_08_418_f,95,AN
mixed,4,2,4,5,0,0,1,674,ch_pi_2001_10_08_418_f,96,AN
mixed,1,1,5,7,0,1,1,1363,ch_pi_2001_10_08_418_f,97,AN
mixed,2,1,2,8,0,0,1,976,ch_pi_2001_10_08_418_f,98,AN
mixed,3,2,8,5,0,1,1,1528,ch_pi_2001_10_08_418_f,99,AN
mixed,4,2,6,2,0,0,1,2019,ch_pi_2001_10_08_418_f,100,AN
mixed,1,1,3,7,0,1,1,1323,ch_pi_2001_10_08_418_f,101,AN
mixed,2,1,4,5,0,0,1,673,ch_pi_2001_10_08_418_f,102,AN
mixed,3,2,1,2,0,1,1,4816,ch_pi_2001_10_08_418_f,103,AN
mixed,4,2,7,4,0,0,1,1748,ch_pi_2001_10_08_418_f,104,AN
mixed,1,1,6,5,0,1,1,1634,ch_pi_2001_10_08_418_f,105,AN
mixed,2,1,8,8,0,0,1,2002,ch_pi_2001_10_08_418_f,106,AN
mixed,3,2,4,6,0,1,1,1117,ch_pi_2001_10_08_418_f,107,AN
mixed,4,2,6,2,0,0,1,820,ch_pi_2001_10_08_418_f,108,AN
mixed,1,1,3,3,0,1,1,1145,ch_pi_2001_10_08_418_f,109,AN
mixed,2,1,1,8,0,0,1,512,ch_pi_2001_10_08_418_f,110,AN
mixed,3,2,6,5,0,1,1,786,ch_pi_2001_10_08_418_f,111,AN
mixed,4,2,2,6,0,0,1,435,ch_pi_2001_10_08_418_f,112,AN
mixed,1,1,4,2,0,1,1,790,ch_pi_2001_10_08_418_f,113,AN
mixed,2,1,8,1,0,0,1,876,ch_pi_2001_10_08_418_f,114,AN
mixed,3,2,6,4,0,1,1,1517,ch_pi_2001_10_08_418_f,115,AN
mixed,4,2,3,3,0,0,1,679,ch_pi_2001_10_08_418_f,116,AN
mixed,1,1,7,7,0,1,1,1784,ch_pi_2001_10_08_418_f,117,AN
mixed,2,1,6,8,0,0,1,1651,ch_pi_2001_10_08_418_f,118,AN
mixed,3,2,8,3,0,1,1,1777,ch_pi_2001_10_08_418_f,119,AN
mixed,4,2,7,8,0,0,1,696,ch_pi_2001_10_08_418_f,120,AN
food,1,1,2,1,1,1,1,3231,ir_pi_2002_01_22_765_f,1,AN
food,2,1,1,6,1,0,3,5000,ir_pi_2002_01_22_765_f,2,AN
food,1,1,6,5,1,0,1,4838,ir_pi_2002_01_22_765_f,3,AN
food,2,1,5,6,1,0,1,2339,ir_pi_2002_01_22_765_f,4,AN
food,1,1,6,7,1,0,1,941,ir_pi_2002_01_22_765_f,5,AN
food,2,1,3,8,1,0,1,790,ir_pi_2002_01_22_765_f,6,AN
food,1,1,8,3,1,0,1,840,ir_pi_2002_01_22_765_f,7,AN
food,2,1,6,7,1,0,1,841,ir_pi_2002_01_22_765_f,8,AN
food,1,1,3,4,1,0,1,644,ir_pi_2002_01_22_765_f,9,AN
food,2,1,7,3,1,0,1,1260,ir_pi_2002_01_22_765_f,10,AN
food,1,1,4,1,1,0,1,862,ir_pi_2002_01_22_765_f,11,AN
food,2,1,3,2,1,0,1,1086,ir_pi_2002_01_22_765_f,12,AN
food,1,1,4,1,1,0,1,723,ir_pi_2002_01_22_765_f,13,AN
food,2,1,3,2,1,0,1,764,ir_pi_2002_01_22_765_f,14,AN
food,1,1,6,4,1,0,1,1072,ir_pi_2002_01_22_765_f,15,AN
food,2,1,3,6,1,0,1,658,ir_pi_2002_01_22_765_f,16,AN
food,1,1,5,7,1,0,1,988,ir_pi_2002_01_22_765_f,17,AN
food,2,1,7,3,1,0,1,1035,ir_pi_2002_01_22_765_f,18,AN
food,1,1,6,7,1,0,1,779,ir_pi_2002_01_22_765_f,19,AN
food,2,1,8,1,1,0,1,648,ir_pi_2002_01_22_765_f,20,AN
food,1,1,3,7,1,0,1,578,ir_pi_2002_01_22_765_f,21,AN
food,2,1,4,4,1,0,1,678,ir_pi_2002_01_22_765_f,22,AN
food,1,1,1,6,1,0,1,621,ir_pi_2002_01_22_765_f,23,AN
food,2,1,7,7,1,0,1,541,ir_pi_2002_01_22_765_f,24,AN
food,1,1,3,4,1,0,1,493,ir_pi_2002_01_22_765_f,25,AN
food,2,1,1,3,1,0,1,601,ir_pi_2002_01_22_765_f,26,AN
food,1,1,3,7,1,0,1,437,ir_pi_2002_01_22_765_f,27,AN
food,2,1,7,5,1,0,1,572,ir_pi_2002_01_22_765_f,28,AN
food,1,1,2,8,1,0,1,533,ir_pi_2002_01_22_765_f,29,AN
food,2,1,4,4,1,0,1,769,ir_pi_2002_01_22_765_f,30,AN
food,1,1,7,3,1,0,1,652,ir_pi_2002_01_22_765_f,31,AN
food,2,1,2,2,1,0,1,853,ir_pi_2002_01_22_765_f,32,AN
food,1,1,1,7,1,0,1,583,ir_pi_2002_01_22_765_f,33,AN
food,2,1,7,6,1,0,1,860,ir_pi_2002_01_22_765_f,34,AN
food,1,1,4,8,1,0,1,500,ir_pi_2002_01_22_765_f,35,AN
food,2,1,3,1,1,0,1,499,ir_pi_2002_01_22_765_f,36,AN
food,1,1,5,7,1,0,2,405,ir_pi_2002_01_22_765_f,37,AN
food,2,1,6,3,1,0,1,723,ir_pi_2002_01_22_765_f,38,AN
food,1,1,4,7,1,0,1,588,ir_pi_2002_01_22_765_f,39,AN
food,2,1,5,1,1,0,1,812,ir_pi_2002_01_22_765_f,40,AN
plants,3,2,2,3,2,1,1,1440,ir_pi_2002_01_22_765_f,41,AN
plants,4,2,7,1,2,0,1,934,ir_pi_2002_01_22_765_f,42,AN
plants,3,2,1,6,2,0,1,669,ir_pi_2002_01_22_765_f,43,AN
plants,4,2,5,4,2,0,1,762,ir_pi_2002_01_22_765_f,44,AN
plants,3,2,1,3,2,0,1,728,ir_pi_2002_01_22_765_f,45,AN
plants,4,2,2,6,2,0,1,658,ir_pi_2002_01_22_765_f,46,AN
plants,3,2,1,1,2,0,1,654,ir_pi_2002_01_22_765_f,47,AN
plants,4,2,8,7,2,0,1,732,ir_pi_2002_01_22_765_f,48,AN
plants,3,2,3,1,2,0,1,666,ir_pi_2002_01_22_765_f,49,AN
plants,4,2,5,5,2,0,1,647,ir_pi_2002_01_22_765_f,50,AN
plants,3,2,1,2,2,0,1,801,ir_pi_2002_01_22_765_f,51,AN
plants,4,2,8,3,2,0,1,1646,ir_pi_2002_01_22_765_f,52,AN
plants,3,2,5,7,2,0,1,614,ir_pi_2002_01_22_765_f,53,AN
plants,4,2,3,8,2,0,1,714,ir_pi_2002_01_22_765_f,54,AN
plants,3,2,7,1,2,0,1,606,ir_pi_2002_01_22_765_f,55,AN
plants,4,2,3,8,2,0,1,593,ir_pi_2002_01_22_765_f,56,AN
plants,3,2,8,7,2,0,1,684,ir_pi_2002_01_22_765_f,57,AN
plants,4,2,4,6,2,0,1,617,ir_pi_2002_01_22_765_f,58,AN
plants,3,2,2,5,2,0,1,557,ir_pi_2002_01_22_765_f,59,AN
plants,4,2,5,8,2,0,1,567,ir_pi_2002_01_22_765_f,60,AN
plants,3,2,2,2,2,0,1,631,ir_pi_2002_01_22_765_f,61,AN
plants,4,2,8,7,2,0,1,643,ir_pi_2002_01_22_765_f,62,AN
plants,3,2,2,8,2,0,1,955,ir_pi_2002_01_22_765_f,63,AN
plants,4,2,5,6,2,0,1,550,ir_pi_2002_01_22_765_f,64,AN
plants,3,2,8,5,2,0,1,525,ir_pi_2002_01_22_765_f,65,AN
plants,4,2,6,6,2,0,1,577,ir_pi_2002_01_22_765_f,66,AN
plants,3,2,5,3,2,0,1,557,ir_pi_2002_01_22_765_f,67,AN
plants,4,2,1,4,2,0,1,651,ir_pi_2002_01_22_765_f,68,AN
plants,3,2,2,2,2,0,1,530,ir_pi_2002_01_22_765_f,69,AN
plants,4,2,3,4,2,0,1,539,ir_pi_2002_01_22_765_f,70,AN
plants,3,2,2,2,2,0,1,475,ir_pi_2002_01_22_765_f,71,AN
plants,4,2,1,6,2,0,1,581,ir_pi_2002_01_22_765_f,72,AN
plants,3,2,8,5,2,0,1,1142,ir_pi_2002_01_22_765_f,73,AN
plants,4,2,3,7,2,0,1,518,ir_pi_2002_01_22_765_f,74,AN
plants,3,2,4,4,2,0,1,538,ir_pi_2002_01_22_765_f,75,AN
plants,4,2,6,5,2,0,1,544,ir_pi_2002_01_22_765_f,76,AN
plants,3,2,8,1,2,0,1,566,ir_pi_2002_01_22_765_f,77,AN
plants,4,2,4,7,2,0,1,569,ir_pi_2002_01_22_765_f,78,AN
plants,3,2,6,1,2,0,1,1301,ir_pi_2002_01_22_765_f,79,AN
plants,4,2,2,7,2,0,1,588,ir_pi_2002_01_22_765_f,80,AN
mixed,1,1,7,6,0,1,1,3276,ir_pi_2002_01_22_765_f,81,AN
mixed,2,1,5,8,0,0,1,1316,ir_pi_2002_01_22_765_f,82,AN
mixed,3,2,7,3,0,1,1,1492,ir_pi_2002_01_22_765_f,83,AN
mixed,4,2,3,4,0,0,1,974,ir_pi_2002_01_22_765_f,84,AN
mixed,1,1,1,3,0,1,1,1372,ir_pi_2002_01_22_765_f,85,AN
mixed,2,1,7,4,0,0,1,984,ir_pi_2002_01_22_765_f,86,AN
mixed,3,2,4,7,0,1,1,1941,ir_pi_2002_01_22_765_f,87,AN
mixed,4,2,8,3,0,0,1,3140,ir_pi_2002_01_22_765_f,88,AN
mixed,1,1,2,2,0,1,1,1541,ir_pi_2002_01_22_765_f,89,AN
mixed,2,1,7,6,0,0,1,1188,ir_pi_2002_01_22_765_f,90,AN
mixed,3,2,8,4,0,1,1,1297,ir_pi_2002_01_22_765_f,91,AN
mixed,4,2,4,1,0,0,1,697,ir_pi_2002_01_22_765_f,92,AN
mixed,1,1,8,8,0,1,1,2222,ir_pi_2002_01_22_765_f,93,AN
mixed,2,1,4,5,0,0,1,786,ir_pi_2002_01_22_765_f,94,AN
mixed,3,2,1,7,0,1,1,1252,ir_pi_2002_01_22_765_f,95,AN
mixed,4,2,3,4,0,0,1,759,ir_pi_2002_01_22_765_f,96,AN
mixed,1,1,2,2,0,1,1,1181,ir_pi_2002_01_22_765_f,97,AN
mixed,2,1,1,7,0,0,1,711,ir_pi_2002_01_22_765_f,98,AN
mixed,3,2,6,5,0,1,1,840,ir_pi_2002_01_22_765_f,99,AN
mixed,4,2,7,6,0,0,1,730,ir_pi_2002_01_22_765_f,100,AN
mixed,1,1,8,3,0,1,1,1046,ir_pi_2002_01_22_765_f,101,AN
mixed,2,1,7,8,0,0,1,1069,ir_pi_2002_01_22_765_f,102,AN
mixed,3,2,6,5,0,1,1,1156,ir_pi_2002_01_22_765_f,103,AN
mixed,4,2,3,4,0,0,1,615,ir_pi_2002_01_22_765_f,104,AN
mixed,1,1,6,1,0,1,1,1108,ir_pi_2002_01_22_765_f,105,AN
mixed,2,1,1,3,0,0,1,609,ir_pi_2002_01_22_765_f,106,AN
mixed,3,2,2,5,0,1,1,1197,ir_pi_2002_01_22_765_f,107,AN
mixed,4,2,6,2,0,0,1,686,ir_pi_2002_01_22_765_f,108,AN
mixed,1,1,7,7,0,1,1,1130,ir_pi_2002_01_22_765_f,109,AN
mixed,2,1,6,3,0,0,1,661,ir_pi_2002_01_22_765_f,110,AN
mixed,3,2,8,5,0,1,1,684,ir_pi_2002_01_22_765_f,111,AN
mixed,4,2,1,8,0,0,1,544,ir_pi_2002_01_22_765_f,112,AN
mixed,1,1,2,5,0,1,1,695,ir_pi_2002_01_22_765_f,113,AN
mixed,2,1,4,7,0,0,1,579,ir_pi_2002_01_22_765_f,114,AN
mixed,3,2,6,1,0,1,1,1923,ir_pi_2002_01_22_765_f,115,AN
mixed,4,2,2,6,0,0,1,569,ir_pi_2002_01_22_765_f,116,AN
mixed,1,1,6,5,0,1,1,829,ir_pi_2002_01_22_765_f,117,AN
mixed,2,1,2,8,0,0,1,755,ir_pi_2002_01_22_765_f,118,AN
mixed,3,2,3,5,0,1,1,813,ir_pi_2002_01_22_765_f,119,AN
mixed,4,2,4,7,0,0,1,467,ir_pi_2002_01_22_765_f,120,AN
food,1,1,5,8,1,1,1,1535,fe_ma_1998_06_29_257_f,1,AN
food,2,1,1,7,1,0,1,1274,fe_ma_1998_06_29_257_f,2,AN
food,1,1,6,5,1,0,1,961,fe_ma_1998_06_29_257_f,3,AN
food,2,1,7,2,1,0,1,1087,fe_ma_1998_06_29_257_f,4,AN
food,1,1,4,4,1,0,1,823,fe_ma_1998_06_29_257_f,5,AN
food,2,1,3,7,1,0,1,1519,fe_ma_1998_06_29_257_f,6,AN
food,1,1,5,1,1,0,1,884,fe_ma_1998_06_29_257_f,7,AN
food,2,1,8,2,1,0,1,2017,fe_ma_1998_06_29_257_f,8,AN
food,1,1,4,7,1,0,1,881,fe_ma_1998_06_29_257_f,9,AN
food,2,1,6,3,1,0,1,1405,fe_ma_1998_06_29_257_f,10,AN
food,1,1,5,7,1,0,1,939,fe_ma_1998_06_29_257_f,11,AN
food,2,1,2,2,1,0,1,851,fe_ma_1998_06_29_257_f,12,AN
food,1,1,8,1,1,0,1,762,fe_ma_1998_06_29_257_f,13,AN
food,2,1,3,5,1,0,1,772,fe_ma_1998_06_29_257_f,14,AN
food,1,1,5,8,1,0,1,755,fe_ma_1998_06_29_257_f,15,AN
food,2,1,7,3,1,0,1,664,fe_ma_1998_06_29_257_f,16,AN
food,1,1,5,1,1,0,1,891,fe_ma_1998_06_29_257_f,17,AN
food,2,1,4,4,1,0,1,786,fe_ma_1998_06_29_257_f,18,AN
food,1,1,5,5,1,0,1,695,fe_ma_1998_06_29_257_f,19,AN
food,2,1,1,1,1,0,1,775,fe_ma_1998_06_29_257_f,20,AN
food,1,1,4,4,1,0,1,948,fe_ma_1998_06_29_257_f,21,AN
food,2,1,3,8,1,0,1,752,fe_ma_1998_06_29_257_f,22,AN
food,1,1,2,2,1,0,1,819,fe_ma_1998_06_29_257_f,23,AN
food,2,1,8,8,1,0,1,959,fe_ma_1998_06_29_257_f,24,AN
food,1,1,1,7,1,0,1,853,fe_ma_1998_06_29_257_f,25,AN
food,2,1,6,5,1,0,1,660,fe_ma_1998_06_29_257_f,26,AN
food,1,1,3,6,1,0,1,620,fe_ma_1998_06_29_257_f,27,AN
food,2,1,7,2,1,0,1,624,fe_ma_1998_06_29_257_f,28,AN
food,1,1,3,5,1,0,1,701,fe_ma_1998_06_29_257_f,29,AN
food,2,1,1,3,1,0,1,827,fe_ma_1998_06_29_257_f,30,AN
food,1,1,3,8,1,0,1,658,fe_ma_1998_06_29_257_f,31,AN
food,2,1,5,2,1,0,1,699,fe_ma_1998_06_29_257_f,32,AN
food,1,1,6,8,1,0,1,946,fe_ma_1998_06_29_257_f,33,AN
food,2,1,2,4,1,0,1,736,fe_ma_1998_06_29_257_f,34,AN
food,1,1,8,7,1,0,1,1542,fe_ma_1998_06_29_257_f,35,AN
food,2,1,6,6,1,0,1,793,fe_ma_1998_06_29_257_f,36,AN
food,1,1,4,5,1,0,1,632,fe_ma_1998_06_29_257_f,37,AN
food,2,1,2,2,1,0,1,758,fe_ma_1998_06_29_257_f,38,AN
food,1,1,7,8,1,0,1,733,fe_ma_1998_06_29_257_f,39,AN
food,2,1,3,7,1,0,1,968,fe_ma_1998_06_29_257_f,40,AN
plants,3,2,5,5,2,1,1,1565,fe_ma_1998_06_29_257_f,41,AN
plants,4,2,2,2,2,0,1,1062,fe_ma_1998_06_29_257_f,42,AN
plants,3,2,1,5,2,0,1,621,fe_ma_1998_06_29_257_f,43,AN
plants,4,2,7,2,2,0,1,732,fe_ma_1998_06_29_257_f,44,AN
plants,3,2,8,6,2,0,1,1247,fe_ma_1998_06_29_257_f,45,AN
plants,4,2,4,7,2,0,1,839,fe_ma_1998_06_29_257_f,46,AN
plants,3,2,1,2,2,0,1,780,fe_ma_1998_06_29_257_f,47,AN
plants,4,2,5,3,2,0,1,844,fe_ma_1998_06_29_257_f,48,AN
plants,3,2,7,2,2,0,1,532,fe_ma_1998_06_29_257_f,49,AN
plants,4,2,2,4,2,0,1,577,fe_ma_1998_06_29_257_f,50,AN
plants,3,2,3,3,2,0,1,606,fe_ma_1998_06_29_257_f,51,AN
plants,4,2,5,7,2,0,1,546,fe_ma_1998_06_29_257_f,52,AN
plants,3,2,2,1,2,0,1,1295,fe_ma_1998_06_29_257_f,53,AN
plants,4,2,5,5,2,0,1,814,fe_ma_1998_06_29_257_f,54,AN
plants,3,2,7,3,2,0,1,650,fe_ma_1998_06_29_257_f,55,AN
plants,4,2,1,1,2,0,1,1131,fe_ma_1998_06_29_257_f,56,AN
plants,3,2,7,4,2,0,1,631,fe_ma_1998_06_29_257_f,57,AN
plants,4,2,2,5,2,0,1,606,fe_ma_1998_06_29_257_f,58,AN
plants,3,2,7,7,2,0,1,565,fe_ma_1998_06_29_257_f,59,AN
plants,4,2,5,8,2,0,1,632,fe_ma_1998_06_29_257_f,60,AN
plants,3,2,8,7,2,0,1,584,fe_ma_1998_06_29_257_f,61,AN
plants,4,2,1,1,2,0,1,548,fe_ma_1998_06_29_257_f,62,AN
plants,3,2,7,7,2,0,1,854,fe_ma_1998_06_29_257_f,63,AN
plants,4,2,1,5,2,0,1,760,fe_ma_1998_06_29_257_f,64,AN
plants,3,2,3,3,2,0,1,714,fe_ma_1998_06_29_257_f,65,AN
plants,4,2,1,8,2,0,1,622,fe_ma_1998_06_29_257_f,66,AN
plants,3,2,2,2,2,0,1,549,fe_ma_1998_06_29_257_f,67,AN
plants,4,2,5,1,2,0,1,764,fe_ma_1998_06_29_257_f,68,AN
plants,3,2,1,6,2,0,1,783,fe_ma_1998_06_29_257_f,69,AN
plants,4,2,3,7,2,0,1,981,fe_ma_1998_06_29_257_f,70,AN
plants,3,2,7,6,2,0,1,629,fe_ma_1998_06_29_257_f,71,AN
plants,4,2,3,3,2,0,1,687,fe_ma_1998_06_29_257_f,72,AN
plants,3,2,5,1,2,0,1,873,fe_ma_1998_06_29_257_f,73,AN
plants,4,2,1,2,2,0,1,548,fe_ma_1998_06_29_257_f,74,AN
plants,3,2,8,5,2,0,1,651,fe_ma_1998_06_29_257_f,75,AN
plants,4,2,7,7,2,0,1,750,fe_ma_1998_06_29_257_f,76,AN
plants,3,2,2,4,2,0,1,649,fe_ma_1998_06_29_257_f,77,AN
plants,4,2,4,3,2,0,1,698,fe_ma_1998_06_29_257_f,78,AN
plants,3,2,1,6,2,0,1,637,fe_ma_1998_06_29_257_f,79,AN
plants,4,2,3,7,2,0,1,747,fe_ma_1998_06_29_257_f,80,AN
mixed,1,1,4,6,0,1,1,3360,fe_ma_1998_06_29_257_f,81,AN
mixed,2,1,1,4,0,0,1,3658,fe_ma_1998_06_29_257_f,82,AN
mixed,3,2,2,8,0,1,1,1768,fe_ma_1998_06_29_257_f,83,AN
mixed,4,2,8,6,0,0,1,1989,fe_ma_1998_06_29_257_f,84,AN
mixed,1,1,2,8,0,1,1,960,fe_ma_1998_06_29_257_f,85,AN
mixed,2,1,3,2,0,0,1,1190,fe_ma_1998_06_29_257_f,86,AN
mixed,3,2,5,8,0,1,1,2138,fe_ma_1998_06_29_257_f,87,AN
mixed,4,2,6,1,0,0,1,1512,fe_ma_1998_06_29_257_f,88,AN
mixed,1,1,1,6,0,1,1,1386,fe_ma_1998_06_29_257_f,89,AN
mixed,2,1,2,2,0,0,1,710,fe_ma_1998_06_29_257_f,90,AN
mixed,3,2,3,4,0,1,1,811,fe_ma_1998_06_29_257_f,91,AN
mixed,4,2,1,1,0,0,1,1530,fe_ma_1998_06_29_257_f,92,AN
mixed,1,1,5,7,0,1,1,1835,fe_ma_1998_06_29_257_f,93,AN
mixed,2,1,4,5,0,0,1,780,fe_ma_1998_06_29_257_f,94,AN
mixed,3,2,2,7,0,1,1,1391,fe_ma_1998_06_29_257_f,95,AN
mixed,4,2,3,8,0,0,1,1257,fe_ma_1998_06_29_257_f,96,AN
mixed,1,1,7,3,0,1,1,1921,fe_ma_1998_06_29_257_f,97,AN
mixed,2,1,3,8,0,0,1,737,fe_ma_1998_06_29_257_f,98,AN
mixed,3,2,1,4,0,1,1,1819,fe_ma_1998_06_29_257_f,99,AN
mixed,4,2,6,1,0,0,1,776,fe_ma_1998_06_29_257_f,100,AN
mixed,1,1,4,3,0,1,1,1244,fe_ma_1998_06_29_257_f,101,AN
mixed,2,1,1,1,0,0,1,1487,fe_ma_1998_06_29_257_f,102,AN
mixed,3,2,6,6,0,1,1,1342,fe_ma_1998_06_29_257_f,103,AN
mixed,4,2,3,1,0,0,2,45,fe_ma_1998_06_29_257_f,104,AN
mixed,1,1,6,6,0,1,1,2225,fe_ma_1998_06_29_257_f,105,AN
mixed,2,1,7,2,0,0,1,1953,fe_ma_1998_06_29_257_f,106,AN
mixed,3,2,3,1,0,1,1,1847,fe_ma_1998_06_29_257_f,107,AN
mixed,4,2,8,7,0,0,1,1510,fe_ma_1998_06_29_257_f,108,AN
mixed,1,1,1,1,0,1,1,856,fe_ma_1998_06_29_257_f,109,AN
mixed,2,1,8,5,0,0,1,1515,fe_ma_1998_06_29_257_f,110,AN
mixed,3,2,2,2,0,1,1,1244,fe_ma_1998_06_29_257_f,111,AN
mixed,4,2,6,8,0,0,1,1165,fe_ma_1998_06_29_257_f,112,AN
mixed,1,1,5,4,0,1,1,1042,fe_ma_1998_06_29_257_f,113,AN
mixed,2,1,8,7,0,0,1,2736,fe_ma_1998_06_29_257_f,114,AN
mixed,3,2,6,3,0,1,1,2026,fe_ma_1998_06_29_257_f,115,AN
mixed,4,2,3,2,0,0,1,1416,fe_ma_1998_06_29_257_f,116,AN
mixed,1,1,1,8,0,1,1,947,fe_ma_1998_06_29_257_f,117,AN
mixed,2,1,5,1,0,0,1,738,fe_ma_1998_06_29_257_f,118,AN
mixed,3,2,6,2,0,1,1,1263,fe_ma_1998_06_29_257_f,119,AN
mixed,4,2,5,4,0,0,1,669,fe_ma_1998_06_29_257_f,120,AN
food,1,1,4,7,1,1,1,1806,ch_ca_2000_09_26_406_f,1,AN
food,2,1,2,1,1,0,1,1721,ch_ca_2000_09_26_406_f,2,AN
food,1,1,1,8,1,0,1,1251,ch_ca_2000_09_26_406_f,3,AN
food,2,1,6,2,1,0,1,875,ch_ca_2000_09_26_406_f,4,AN
food,1,1,3,7,1,0,1,828,ch_ca_2000_09_26_406_f,5,AN
food,2,1,6,6,1,0,1,1073,ch_ca_2000_09_26_406_f,6,AN
food,1,1,3,1,1,0,1,880,ch_ca_2000_09_26_406_f,7,AN
food,2,1,7,5,1,0,1,789,ch_ca_2000_09_26_406_f,8,AN
food,1,1,3,1,1,0,1,710,ch_ca_2000_09_26_406_f,9,AN
food,2,1,7,4,1,0,1,727,ch_ca_2000_09_26_406_f,10,AN
food,1,1,3,1,1,0,1,671,ch_ca_2000_09_26_406_f,11,AN
food,2,1,6,4,1,0,1,705,ch_ca_2000_09_26_406_f,12,AN
food,1,1,1,5,1,0,1,711,ch_ca_2000_09_26_406_f,13,AN
food,2,1,5,7,1,0,1,693,ch_ca_2000_09_26_406_f,14,AN
food,1,1,4,4,1,0,1,1863,ch_ca_2000_09_26_406_f,15,AN
food,2,1,5,3,1,0,1,625,ch_ca_2000_09_26_406_f,16,AN
food,1,1,2,6,1,0,1,665,ch_ca_2000_09_26_406_f,17,AN
food,2,1,7,5,1,0,1,578,ch_ca_2000_09_26_406_f,18,AN
food,1,1,1,4,1,0,1,644,ch_ca_2000_09_26_406_f,19,AN
food,2,1,8,1,1,0,1,1408,ch_ca_2000_09_26_406_f,20,AN
food,1,1,4,8,1,0,1,740,ch_ca_2000_09_26_406_f,21,AN
food,2,1,1,5,1,0,1,1799,ch_ca_2000_09_26_406_f,22,AN
food,1,1,3,2,1,0,1,480,ch_ca_2000_09_26_406_f,23,AN
food,2,1,8,5,1,0,1,860,ch_ca_2000_09_26_406_f,24,AN
food,1,1,4,6,1,0,1,772,ch_ca_2000_09_26_406_f,25,AN
food,2,1,6,1,1,0,1,1034,ch_ca_2000_09_26_406_f,26,AN
food,1,1,7,5,1,0,1,753,ch_ca_2000_09_26_406_f,27,AN
food,2,1,6,1,1,0,1,633,ch_ca_2000_09_26_406_f,28,AN
food,1,1,4,2,1,0,1,809,ch_ca_2000_09_26_406_f,29,AN
food,2,1,7,1,1,0,1,997,ch_ca_2000_09_26_406_f,30,AN
food,1,1,1,2,1,0,1,707,ch_ca_2000_09_26_406_f,31,AN
food,2,1,4,5,1,0,1,989,ch_ca_2000_09_26_406_f,32,AN
food,1,1,7,4,1,0,1,758,ch_ca_2000_09_26_406_f,33,AN
food,2,1,8,5,1,0,1,944,ch_ca_2000_09_26_406_f,34,AN
food,1,1,6,8,1,0,1,795,ch_ca_2000_09_26_406_f,35,AN
food,2,1,8,2,1,0,1,629,ch_ca_2000_09_26_406_f,36,AN
food,1,1,3,6,1,0,1,681,ch_ca_2000_09_26_406_f,37,AN
food,2,1,6,1,1,0,1,638,ch_ca_2000_09_26_406_f,38,AN
food,1,1,2,8,1,0,1,817,ch_ca_2000_09_26_406_f,39,AN
food,2,1,7,2,1,0,1,642,ch_ca_2000_09_26_406_f,40,AN
plants,3,2,8,4,2,1,1,2989,ch_ca_2000_09_26_406_f,41,AN
plants,4,2,1,7,2,0,1,756,ch_ca_2000_09_26_406_f,42,AN
plants,3,2,6,6,2,0,1,817,ch_ca_2000_09_26_406_f,43,AN
plants,4,2,3,7,2,0,1,679,ch_ca_2000_09_26_406_f,44,AN
plants,3,2,4,1,2,0,1,762,ch_ca_2000_09_26_406_f,45,AN
plants,4,2,6,4,2,0,1,754,ch_ca_2000_09_26_406_f,46,AN
plants,3,2,5,5,2,0,1,647,ch_ca_2000_09_26_406_f,47,AN
plants,4,2,6,3,2,0,1,1226,ch_ca_2000_09_26_406_f,48,AN
plants,3,2,2,8,2,0,1,615,ch_ca_2000_09_26_406_f,49,AN
plants,4,2,8,5,2,0,1,925,ch_ca_2000_09_26_406_f,50,AN
plants,3,2,4,6,2,0,1,574,ch_ca_2000_09_26_406_f,51,AN
plants,4,2,3,2,2,0,1,635,ch_ca_2000_09_26_406_f,52,AN
plants,3,2,4,8,2,0,1,771,ch_ca_2000_09_26_406_f,53,AN
plants,4,2,6,4,2,0,1,655,ch_ca_2000_09_26_406_f,54,AN
plants,3,2,3,2,2,0,1,656,ch_ca_2000_09_26_406_f,55,AN
plants,4,2,5,1,2,0,1,663,ch_ca_2000_09_26_406_f,56,AN
plants,3,2,6,2,2,0,1,504,ch_ca_2000_09_26_406_f,57,AN
plants,4,2,5,6,2,0,1,611,ch_ca_2000_09_26_406_f,58,AN
plants,3,2,7,3,2,0,1,608,ch_ca_2000_09_26_406_f,59,AN
plants,4,2,2,7,2,0,1,545,ch_ca_2000_09_26_406_f,60,AN
plants,3,2,4,6,2,0,1,534,ch_ca_2000_09_26_406_f,61,AN
plants,4,2,1,5,2,0,1,580,ch_ca_2000_09_26_406_f,62,AN
plants,3,2,6,8,2,0,1,607,ch_ca_2000_09_26_406_f,63,AN
plants,4,2,5,7,2,0,1,559,ch_ca_2000_09_26_406_f,64,AN
plants,3,2,8,1,2,0,1,578,ch_ca_2000_09_26_406_f,65,AN
plants,4,2,4,2,2,0,1,755,ch_ca_2000_09_26_406_f,66,AN
plants,3,2,6,7,2,0,1,512,ch_ca_2000_09_26_406_f,67,AN
plants,4,2,4,8,2,0,1,1048,ch_ca_2000_09_26_406_f,68,AN
plants,3,2,7,4,2,0,1,564,ch_ca_2000_09_26_406_f,69,AN
plants,4,2,1,1,2,0,1,1084,ch_ca_2000_09_26_406_f,70,AN
plants,3,2,6,6,2,0,1,609,ch_ca_2000_09_26_406_f,71,AN
plants,4,2,5,1,2,0,1,761,ch_ca_2000_09_26_406_f,72,AN
plants,3,2,2,3,2,0,1,627,ch_ca_2000_09_26_406_f,73,AN
plants,4,2,4,2,2,0,1,629,ch_ca_2000_09_26_406_f,74,AN
plants,3,2,7,3,2,0,1,633,ch_ca_2000_09_26_406_f,75,AN
plants,4,2,3,8,2,0,1,606,ch_ca_2000_09_26_406_f,76,AN
plants,3,2,1,7,2,0,1,472,ch_ca_2000_09_26_406_f,77,AN
plants,4,2,7,8,2,0,1,480,ch_ca_2000_09_26_406_f,78,AN
plants,3,2,6,2,2,0,1,566,ch_ca_2000_09_26_406_f,79,AN
plants,4,2,4,1,2,0,1,541,ch_ca_2000_09_26_406_f,80,AN
mixed,1,1,3,4,0,1,1,1011,ch_ca_2000_09_26_406_f,81,AN
mixed,2,1,7,2,0,0,1,730,ch_ca_2000_09_26_406_f,82,AN
mixed,3,2,2,5,0,1,1,1464,ch_ca_2000_09_26_406_f,83,AN
mixed,4,2,5,1,0,0,1,753,ch_ca_2000_09_26_406_f,84,AN
mixed,1,1,3,5,0,1,1,1966,ch_ca_2000_09_26_406_f,85,AN
mixed,2,1,6,4,0,0,1,825,ch_ca_2000_09_26_406_f,86,AN
mixed,3,2,3,8,0,1,1,1536,ch_ca_2000_09_26_406_f,87,AN
mixed,4,2,2,6,0,0,1,786,ch_ca_2000_09_26_406_f,88,AN
mixed,1,1,4,5,0,1,1,1505,ch_ca_2000_09_26_406_f,89,AN
mixed,2,1,2,8,0,0,1,758,ch_ca_2000_09_26_406_f,90,AN
mixed,3,2,5,6,0,1,1,2243,ch_ca_2000_09_26_406_f,91,AN
mixed,4,2,6,2,0,0,1,741,ch_ca_2000_09_26_406_f,92,AN
mixed,1,1,8,3,0,1,1,1567,ch_ca_2000_09_26_406_f,93,AN
mixed,2,1,4,5,0,0,1,993,ch_ca_2000_09_26_406_f,94,AN
mixed,3,2,8,2,0,1,1,2834,ch_ca_2000_09_26_406_f,95,AN
mixed,4,2,2,7,0,0,1,627,ch_ca_2000_09_26_406_f,96,AN
mixed,1,1,6,5,0,1,1,1652,ch_ca_2000_09_26_406_f,97,AN
mixed,2,1,4,6,0,0,1,994,ch_ca_2000_09_26_406_f,98,AN
mixed,3,2,1,8,0,1,1,1007,ch_ca_2000_09_26_406_f,99,AN
mixed,4,2,4,2,0,0,1,545,ch_ca_2000_09_26_406_f,100,AN
mixed,1,1,6,5,0,1,1,1680,ch_ca_2000_09_26_406_f,101,AN
mixed,2,1,5,2,0,0,1,803,ch_ca_2000_09_26_406_f,102,AN
mixed,3,2,7,8,0,1,1,1535,ch_ca_2000_09_26_406_f,103,AN
mixed,4,2,5,2,0,0,1,768,ch_ca_2000_09_26_406_f,104,AN
mixed,1,1,8,3,0,1,1,1283,ch_ca_2000_09_26_406_f,105,AN
mixed,2,1,7,4,0,0,1,826,ch_ca_2000_09_26_406_f,106,AN
mixed,3,2,3,1,0,1,1,1827,ch_ca_2000_09_26_406_f,107,AN
mixed,4,2,4,4,0,0,1,782,ch_ca_2000_09_26_406_f,108,AN
mixed,1,1,8,5,0,1,1,1655,ch_ca_2000_09_26_406_f,109,AN
mixed,2,1,5,3,0,0,1,1242,ch_ca_2000_09_26_406_f,110,AN
mixed,3,2,4,4,0,1,1,2081,ch_ca_2000_09_26_406_f,111,AN
mixed,4,2,2,5,0,0,1,638,ch_ca_2000_09_26_406_f,112,AN
mixed,1,1,8,7,0,1,1,2965,ch_ca_2000_09_26_406_f,113,AN
mixed,2,1,3,2,0,0,1,831,ch_ca_2000_09_26_406_f,114,AN
mixed,3,2,6,1,0,1,1,2074,ch_ca_2000_09_26_406_f,115,AN
mixed,4,2,5,3,0,0,1,594,ch_ca_2000_09_26_406_f,116,AN
mixed,1,1,3,8,0,1,1,1232,ch_ca_2000_09_26_406_f,117,AN
mixed,2,1,6,7,0,0,1,1763,ch_ca_2000_09_26_406_f,118,AN
mixed,3,2,1,6,0,1,1,1309,ch_ca_2000_09_26_406_f,119,AN
mixed,4,2,3,5,0,0,1,788,ch_ca_2000_09_26_406_f,120,AN
food,1,1,1,6,1,1,1,1647,gr_bo_1996_07_31_547_f,1,AN
food,2,1,4,7,1,0,1,1049,gr_bo_1996_07_31_547_f,2,AN
food,1,1,1,8,1,0,1,1153,gr_bo_1996_07_31_547_f,3,AN
food,2,1,2,6,1,0,1,1238,gr_bo_1996_07_31_547_f,4,AN
food,1,1,5,8,1,0,1,1007,gr_bo_1996_07_31_547_f,5,AN
food,2,1,7,5,1,0,1,856,gr_bo_1996_07_31_547_f,6,AN
food,1,1,4,3,1,0,1,1176,gr_bo_1996_07_31_547_f,7,AN
food,2,1,5,7,1,0,1,903,gr_bo_1996_07_31_547_f,8,AN
food,1,1,6,8,1,0,1,781,gr_bo_1996_07_31_547_f,9,AN
food,2,1,7,3,1,0,1,813,gr_bo_1996_07_31_547_f,10,AN
food,1,1,5,4,1,0,1,781,gr_bo_1996_07_31_547_f,11,AN
food,2,1,1,8,1,0,1,722,gr_bo_1996_07_31_547_f,12,AN
food,1,1,2,3,1,0,1,842,gr_bo_1996_07_31_547_f,13,AN
food,2,1,4,4,1,0,1,782,gr_bo_1996_07_31_547_f,14,AN
food,1,1,2,2,1,0,1,722,gr_bo_1996_07_31_547_f,15,AN
food,2,1,5,7,1,0,1,737,gr_bo_1996_07_31_547_f,16,AN
food,1,1,3,2,1,0,1,769,gr_bo_1996_07_31_547_f,17,AN
food,2,1,5,5,1,0,1,632,gr_bo_1996_07_31_547_f,18,AN
food,1,1,8,7,1,0,1,899,gr_bo_1996_07_31_547_f,19,AN
food,2,1,2,1,1,0,1,802,gr_bo_1996_07_31_547_f,20,AN
food,1,1,4,3,1,0,1,1114,gr_bo_1996_07_31_547_f,21,AN
food,2,1,6,1,1,0,1,731,gr_bo_1996_07_31_547_f,22,AN
food,1,1,7,6,1,0,1,936,gr_bo_1996_07_31_547_f,23,AN
food,2,1,2,1,1,0,1,775,gr_bo_1996_07_31_547_f,24,AN
food,1,1,8,8,1,0,1,815,gr_bo_1996_07_31_547_f,25,AN
food,2,1,7,1,1,0,2,719,gr_bo_1996_07_31_547_f,26,AN
food,1,1,5,5,1,0,1,913,gr_bo_1996_07_31_547_f,27,AN
food,2,1,2,7,1,0,1,756,gr_bo_1996_07_31_547_f,28,AN
food,1,1,6,6,1,0,1,913,gr_bo_1996_07_31_547_f,29,AN
food,2,1,7,1,1,0,1,718,gr_bo_1996_07_31_547_f,30,AN
food,1,1,1,7,1,0,1,836,gr_bo_1996_07_31_547_f,31,AN
food,2,1,2,1,1,0,1,1162,gr_bo_1996_07_31_547_f,32,AN
food,1,1,5,2,1,0,1,692,gr_bo_1996_07_31_547_f,33,AN
food,2,1,2,5,1,0,1,867,gr_bo_1996_07_31_547_f,34,AN
food,1,1,1,4,1,0,1,840,gr_bo_1996_07_31_547_f,35,AN
food,2,1,2,1,1,0,1,797,gr_bo_1996_07_31_547_f,36,AN
food,1,1,3,8,1,0,1,670,gr_bo_1996_07_31_547_f,37,AN
food,2,1,4,5,1,0,1,693,gr_bo_1996_07_31_547_f,38,AN
food,1,1,3,8,1,0,1,588,gr_bo_1996_07_31_547_f,39,AN
food,2,1,5,5,1,0,1,689,gr_bo_1996_07_31_547_f,40,AN
plants,3,2,3,4,2,1,1,1157,gr_bo_1996_07_31_547_f,41,AN
plants,4,2,5,2,2,0,1,635,gr_bo_1996_07_31_547_f,42,AN
plants,3,2,8,4,2,0,1,521,gr_bo_1996_07_31_547_f,43,AN
plants,4,2,5,6,2,0,1,591,gr_bo_1996_07_31_547_f,44,AN
plants,3,2,7,7,2,0,1,614,gr_bo_1996_07_31_547_f,45,AN
plants,4,2,5,1,2,0,1,838,gr_bo_1996_07_31_547_f,46,AN
plants,3,2,2,6,2,0,1,1006,gr_bo_1996_07_31_547_f,47,AN
plants,4,2,3,7,2,0,1,739,gr_bo_1996_07_31_547_f,48,AN
plants,3,2,5,8,2,0,1,534,gr_bo_1996_07_31_547_f,49,AN
plants,4,2,7,4,2,0,1,676,gr_bo_1996_07_31_547_f,50,AN
plants,3,2,1,2,2,0,1,694,gr_bo_1996_07_31_547_f,51,AN
plants,4,2,7,4,2,0,1,519,gr_bo_1996_07_31_547_f,52,AN
plants,3,2,6,1,2,0,1,612,gr_bo_1996_07_31_547_f,53,AN
plants,4,2,4,8,2,0,1,725,gr_bo_1996_07_31_547_f,54,AN
plants,3,2,2,5,2,0,1,467,gr_bo_1996_07_31_547_f,55,AN
plants,4,2,5,2,2,0,1,630,gr_bo_1996_07_31_547_f,56,AN
plants,3,2,7,8,2,0,1,582,gr_bo_1996_07_31_547_f,57,AN
plants,4,2,6,3,2,0,2,2739,gr_bo_1996_07_31_547_f,58,AN
plants,3,2,4,1,2,0,2,1211,gr_bo_1996_07_31_547_f,59,AN
plants,4,2,8,6,2,0,1,919,gr_bo_1996_07_31_547_f,60,AN
plants,3,2,6,7,2,0,1,570,gr_bo_1996_07_31_547_f,61,AN
plants,4,2,4,6,2,0,1,596,gr_bo_1996_07_31_547_f,62,AN
plants,3,2,5,7,2,0,1,504,gr_bo_1996_07_31_547_f,63,AN
plants,4,2,7,2,2,0,1,563,gr_bo_1996_07_31_547_f,64,AN
plants,3,2,1,5,2,0,1,634,gr_bo_1996_07_31_547_f,65,AN
plants,4,2,7,2,2,0,1,915,gr_bo_1996_07_31_547_f,66,AN
plants,3,2,6,4,2,0,1,477,gr_bo_1996_07_31_547_f,67,AN
plants,4,2,1,5,2,0,1,568,gr_bo_1996_07_31_547_f,68,AN
plants,3,2,5,7,2,0,1,543,gr_bo_1996_07_31_547_f,69,AN
plants,4,2,3,4,2,0,1,635,gr_bo_1996_07_31_547_f,70,AN
plants,3,2,5,7,2,0,1,566,gr_bo_1996_07_31_547_f,71,AN
plants,4,2,6,8,2,0,1,857,gr_bo_1996_07_31_547_f,72,AN
plants,3,2,3,6,2,0,1,505,gr_bo_1996_07_31_547_f,73,AN
plants,4,2,1,7,2,0,1,492,gr_bo_1996_07_31_547_f,74,AN
plants,3,2,3,5,2,0,1,474,gr_bo_1996_07_31_547_f,75,AN
plants,4,2,2,7,2,0,1,467,gr_bo_1996_07_31_547_f,76,AN
plants,3,2,4,6,2,0,1,607,gr_bo_1996_07_31_547_f,77,AN
plants,4,2,2,1,2,0,1,756,gr_bo_1996_07_31_547_f,78,AN
plants,3,2,3,7,2,0,1,685,gr_bo_1996_07_31_547_f,79,AN
plants,4,2,2,2,2,0,1,880,gr_bo_1996_07_31_547_f,80,AN
mixed,1,1,5,7,0,1,1,1628,gr_bo_1996_07_31_547_f,81,AN
mixed,2,1,6,2,0,0,1,1411,gr_bo_1996_07_31_547_f,82,AN
mixed,3,2,8,4,0,1,1,1891,gr_bo_1996_07_31_547_f,83,AN
mixed,4,2,2,1,0,0,1,841,gr_bo_1996_07_31_547_f,84,AN
mixed,1,1,8,4,0,1,1,1173,gr_bo_1996_07_31_547_f,85,AN
mixed,2,1,5,6,0,0,1,621,gr_bo_1996_07_31_547_f,86,AN
mixed,3,2,7,5,0,1,1,2038,gr_bo_1996_07_31_547_f,87,AN
mixed,4,2,6,7,0,0,1,485,gr_bo_1996_07_31_547_f,88,AN
mixed,1,1,5,5,0,1,1,1596,gr_bo_1996_07_31_547_f,89,AN
mixed,2,1,8,6,0,0,1,1799,gr_bo_1996_07_31_547_f,90,AN
mixed,3,2,6,7,0,1,2,1394,gr_bo_1996_07_31_547_f,91,AN
mixed,4,2,8,4,0,0,1,1831,gr_bo_1996_07_31_547_f,92,AN
mixed,1,1,4,6,0,1,1,2047,gr_bo_1996_07_31_547_f,93,AN
mixed,2,1,5,4,0,0,1,869,gr_bo_1996_07_31_547_f,94,AN
mixed,3,2,2,1,0,1,1,1745,gr_bo_1996_07_31_547_f,95,AN
mixed,4,2,4,2,0,0,1,798,gr_bo_1996_07_31_547_f,96,AN
mixed,1,1,8,4,0,1,1,1200,gr_bo_1996_07_31_547_f,97,AN
mixed,2,1,7,1,0,0,1,673,gr_bo_1996_07_31_547_f,98,AN
mixed,3,2,1,6,0,1,1,1248,gr_bo_1996_07_31_547_f,99,AN
mixed,4,2,8,7,0,0,1,515,gr_bo_1996_07_31_547_f,100,AN
mixed,1,1,4,8,0,1,1,1159,gr_bo_1996_07_31_547_f,101,AN
mixed,2,1,6,4,0,0,2,719,gr_bo_1996_07_31_547_f,102,AN
mixed,3,2,1,5,0,1,1,1194,gr_bo_1996_07_31_547_f,103,AN
mixed,4,2,8,2,0,0,1,795,gr_bo_1996_07_31_547_f,104,AN
mixed,1,1,6,6,0,1,1,1354,gr_bo_1996_07_31_547_f,105,AN
mixed,2,1,5,2,0,0,1,640,gr_bo_1996_07_31_547_f,106,AN
mixed,3,2,4,8,0,1,1,1695,gr_bo_1996_07_31_547_f,107,AN
mixed,4,2,7,4,0,0,1,907,gr_bo_1996_07_31_547_f,108,AN
mixed,1,1,1,3,0,1,1,1715,gr_bo_1996_07_31_547_f,109,AN
mixed,2,1,8,1,0,0,1,1642,gr_bo_1996_07_31_547_f,110,AN
mixed,3,2,4,4,0,1,1,1681,gr_bo_1996_07_31_547_f,111,AN
mixed,4,2,7,2,0,0,1,750,gr_bo_1996_07_31_547_f,112,AN
mixed,1,1,1,3,0,1,1,1548,gr_bo_1996_07_31_547_f,113,AN
mixed,2,1,5,8,0,0,1,705,gr_bo_1996_07_31_547_f,114,AN
mixed,3,2,1,1,0,1,1,1451,gr_bo_1996_07_31_547_f,115,AN
mixed,4,2,3,8,0,0,1,662,gr_bo_1996_07_31_547_f,116,AN
mixed,1,1,1,1,0,1,1,1160,gr_bo_1996_07_31_547_f,117,AN
mixed,2,1,2,7,0,0,1,1500,gr_bo_1996_07_31_547_f,118,AN
mixed,3,2,5,1,0,1,1,2000,gr_bo_1996_07_31_547_f,119,AN
mixed,4,2,2,5,0,0,1,834,gr_bo_1996_07_31_547_f,120,AN
food,1,1,8,2,1,1,1,1663,es_bo_2004_07_23_474_f,1,AN
food,2,1,2,5,1,0,1,4789,es_bo_2004_07_23_474_f,2,AN
food,1,1,3,6,1,0,1,1807,es_bo_2004_07_23_474_f,3,AN
food,2,1,2,5,1,0,1,1218,es_bo_2004_07_23_474_f,4,AN
food,1,1,8,8,1,0,1,710,es_bo_2004_07_23_474_f,5,AN
food,2,1,3,3,1,0,1,656,es_bo_2004_07_23_474_f,6,AN
food,1,1,7,5,1,0,1,648,es_bo_2004_07_23_474_f,7,AN
food,2,1,5,7,1,0,1,720,es_bo_2004_07_23_474_f,8,AN
food,1,1,6,4,1,0,1,532,es_bo_2004_07_23_474_f,9,AN
food,2,1,2,1,1,0,1,853,es_bo_2004_07_23_474_f,10,AN
food,1,1,8,7,1,0,1,748,es_bo_2004_07_23_474_f,11,AN
food,2,1,4,1,1,0,1,705,es_bo_2004_07_23_474_f,12,AN
food,1,1,3,3,1,0,1,1007,es_bo_2004_07_23_474_f,13,AN
food,2,1,4,5,1,0,1,765,es_bo_2004_07_23_474_f,14,AN
food,1,1,5,8,1,0,1,735,es_bo_2004_07_23_474_f,15,AN
food,2,1,4,1,1,0,1,656,es_bo_2004_07_23_474_f,16,AN
food,1,1,5,8,1,0,1,773,es_bo_2004_07_23_474_f,17,AN
food,2,1,1,7,1,0,1,734,es_bo_2004_07_23_474_f,18,AN
food,1,1,6,2,1,0,1,652,es_bo_2004_07_23_474_f,19,AN
food,2,1,2,7,1,0,1,613,es_bo_2004_07_23_474_f,20,AN
food,1,1,3,4,1,0,2,465,es_bo_2004_07_23_474_f,21,AN
food,2,1,2,5,1,0,1,796,es_bo_2004_07_23_474_f,22,AN
food,1,1,8,7,1,0,1,950,es_bo_2004_07_23_474_f,23,AN
food,2,1,5,6,1,0,1,861,es_bo_2004_07_23_474_f,24,AN
food,1,1,2,1,1,0,1,1304,es_bo_2004_07_23_474_f,25,AN
food,2,1,5,8,1,0,1,599,es_bo_2004_07_23_474_f,26,AN
food,1,1,6,5,1,0,1,519,es_bo_2004_07_23_474_f,27,AN
food,2,1,1,1,1,0,1,573,es_bo_2004_07_23_474_f,28,AN
food,1,1,7,4,1,0,1,612,es_bo_2004_07_23_474_f,29,AN
food,2,1,2,8,1,0,1,522,es_bo_2004_07_23_474_f,30,AN
food,1,1,3,1,1,0,1,614,es_bo_2004_07_23_474_f,31,AN
food,2,1,8,5,1,0,1,532,es_bo_2004_07_23_474_f,32,AN
food,1,1,1,8,1,0,1,591,es_bo_2004_07_23_474_f,33,AN
food,2,1,4,6,1,0,1,717,es_bo_2004_07_23_474_f,34,AN
food,1,1,2,5,1,0,1,636,es_bo_2004_07_23_474_f,35,AN
food,2,1,8,7,1,0,1,549,es_bo_2004_07_23_474_f,36,AN
food,1,1,4,5,1,0,1,679,es_bo_2004_07_23_474_f,37,AN
food,2,1,2,4,1,0,1,1015,es_bo_2004_07_23_474_f,38,AN
food,1,1,6,5,1,0,1,632,es_bo_2004_07_23_474_f,39,AN
food,2,1,7,6,1,0,1,687,es_bo_2004_07_23_474_f,40,AN
plants,3,2,5,8,2,1,1,4928,es_bo_2004_07_23_474_f,41,AN
plants,4,2,6,5,2,0,1,860,es_bo_2004_07_23_474_f,42,AN
plants,3,2,3,2,2,0,1,862,es_bo_2004_07_23_474_f,43,AN
plants,4,2,2,6,2,0,1,937,es_bo_2004_07_23_474_f,44,AN
plants,3,2,7,3,2,0,1,746,es_bo_2004_07_23_474_f,45,AN
plants,4,2,4,4,2,0,1,1471,es_bo_2004_07_23_474_f,46,AN
plants,3,2,1,2,2,0,1,3723,es_bo_2004_07_23_474_f,47,AN
plants,4,2,7,1,2,0,1,657,es_bo_2004_07_23_474_f,48,AN
plants,3,2,4,6,2,0,1,552,es_bo_2004_07_23_474_f,49,AN
plants,4,2,3,2,2,0,1,512,es_bo_2004_07_23_474_f,50,AN
plants,3,2,5,8,2,0,1,541,es_bo_2004_07_23_474_f,51,AN
plants,4,2,7,5,2,0,1,362,es_bo_2004_07_23_474_f,52,AN
plants,3,2,4,4,2,0,1,468,es_bo_2004_07_23_474_f,53,AN
plants,4,2,8,7,2,0,1,519,es_bo_2004_07_23_474_f,54,AN
plants,3,2,1,6,2,0,1,573,es_bo_2004_07_23_474_f,55,AN
plants,4,2,5,7,2,0,1,475,es_bo_2004_07_23_474_f,56,AN
plants,3,2,1,1,2,0,1,537,es_bo_2004_07_23_474_f,57,AN
plants,4,2,8,2,2,0,1,613,es_bo_2004_07_23_474_f,58,AN
plants,3,2,4,5,2,0,1,587,es_bo_2004_07_23_474_f,59,AN
plants,4,2,1,6,2,0,1,422,es_bo_2004_07_23_474_f,60,AN
plants,3,2,5,7,2,0,1,491,es_bo_2004_07_23_474_f,61,AN
plants,4,2,4,3,2,0,1,596,es_bo_2004_07_23_474_f,62,AN
plants,3,2,6,8,2,0,1,442,es_bo_2004_07_23_474_f,63,AN
plants,4,2,8,6,2,0,1,618,es_bo_2004_07_23_474_f,64,AN
plants,3,2,6,5,2,0,1,441,es_bo_2004_07_23_474_f,65,AN
plants,4,2,7,8,2,0,1,506,es_bo_2004_07_23_474_f,66,AN
plants,3,2,5,2,2,0,1,657,es_bo_2004_07_23_474_f,67,AN
plants,4,2,6,7,2,0,1,673,es_bo_2004_07_23_474_f,68,AN
plants,3,2,5,3,2,0,1,857,es_bo_2004_07_23_474_f,69,AN
plants,4,2,4,2,2,0,1,702,es_bo_2004_07_23_474_f,70,AN
plants,3,2,8,1,2,0,1,580,es_bo_2004_07_23_474_f,71,AN
plants,4,2,5,3,2,0,1,475,es_bo_2004_07_23_474_f,72,AN
plants,3,2,3,8,2,0,1,522,es_bo_2004_07_23_474_f,73,AN
plants,4,2,7,3,2,0,1,486,es_bo_2004_07_23_474_f,74,AN
plants,3,2,3,2,2,0,1,1686,es_bo_2004_07_23_474_f,75,AN
plants,4,2,6,7,2,0,1,546,es_bo_2004_07_23_474_f,76,AN
plants,3,2,3,6,2,0,1,367,es_bo_2004_07_23_474_f,77,AN
plants,4,2,6,8,2,0,1,353,es_bo_2004_07_23_474_f,78,AN
plants,3,2,5,7,2,0,1,356,es_bo_2004_07_23_474_f,79,AN
plants,4,2,1,3,2,0,1,545,es_bo_2004_07_23_474_f,80,AN
mixed,1,1,7,6,0,1,1,2864,es_bo_2004_07_23_474_f,81,AN
mixed,2,1,4,1,0,0,3,5000,es_bo_2004_07_23_474_f,82,AN
mixed,3,2,8,5,0,1,2,2692,es_bo_2004_07_23_474_f,83,AN
mixed,4,2,7,2,0,0,2,1873,es_bo_2004_07_23_474_f,84,AN
mixed,1,1,2,1,0,1,1,1083,es_bo_2004_07_23_474_f,85,AN
mixed,2,1,7,2,0,0,1,3093,es_bo_2004_07_23_474_f,86,AN
mixed,3,2,1,1,0,1,1,2166,es_bo_2004_07_23_474_f,87,AN
mixed,4,2,2,7,0,0,2,3038,es_bo_2004_07_23_474_f,88,AN
mixed,1,1,1,4,0,1,1,1291,es_bo_2004_07_23_474_f,89,AN
mixed,2,1,6,1,0,0,1,959,es_bo_2004_07_23_474_f,90,AN
mixed,3,2,7,4,0,1,2,843,es_bo_2004_07_23_474_f,91,AN
mixed,4,2,1,6,0,0,2,1280,es_bo_2004_07_23_474_f,92,AN
mixed,1,1,3,1,0,1,1,1147,es_bo_2004_07_23_474_f,93,AN
mixed,2,1,8,5,0,0,1,731,es_bo_2004_07_23_474_f,94,AN
mixed,3,2,5,3,0,1,1,1282,es_bo_2004_07_23_474_f,95,AN
mixed,4,2,8,6,0,0,1,639,es_bo_2004_07_23_474_f,96,AN
mixed,1,1,4,8,0,1,2,1242,es_bo_2004_07_23_474_f,97,AN
mixed,2,1,1,1,0,0,1,1214,es_bo_2004_07_23_474_f,98,AN
mixed,3,2,7,8,0,1,2,4764,es_bo_2004_07_23_474_f,99,AN
mixed,4,2,8,2,0,0,1,2594,es_bo_2004_07_23_474_f,100,AN
mixed,1,1,2,1,0,1,1,1601,es_bo_2004_07_23_474_f,101,AN
mixed,2,1,4,5,0,0,1,1622,es_bo_2004_07_23_474_f,102,AN
mixed,3,2,7,3,0,1,2,2171,es_bo_2004_07_23_474_f,103,AN
mixed,4,2,4,5,0,0,1,1209,es_bo_2004_07_23_474_f,104,AN
mixed,1,1,8,7,0,1,1,2158,es_bo_2004_07_23_474_f,105,AN
mixed,2,1,6,8,0,0,1,901,es_bo_2004_07_23_474_f,106,AN
mixed,3,2,4,4,0,1,1,2186,es_bo_2004_07_23_474_f,107,AN
mixed,4,2,8,1,0,0,1,1051,es_bo_2004_07_23_474_f,108,AN
mixed,1,1,1,3,0,1,1,1402,es_bo_2004_07_23_474_f,109,AN
mixed,2,1,8,1,0,0,1,795,es_bo_2004_07_23_474_f,110,AN
mixed,3,2,7,2,0,1,1,2219,es_bo_2004_07_23_474_f,111,AN
mixed,4,2,2,5,0,0,1,721,es_bo_2004_07_23_474_f,112,AN
mixed,1,1,8,7,0,1,1,1737,es_bo_2004_07_23_474_f,113,AN
mixed,2,1,6,6,0,0,1,958,es_bo_2004_07_23_474_f,114,AN
mixed,3,2,2,4,0,1,1,1379,es_bo_2004_07_23_474_f,115,AN
mixed,4,2,5,5,0,0,1,2971,es_bo_2004_07_23_474_f,116,AN
mixed,1,1,2,7,0,1,1,1022,es_bo_2004_07_23_474_f,117,AN
mixed,2,1,7,3,0,0,1,743,es_bo_2004_07_23_474_f,118,AN
mixed,3,2,8,6,0,1,1,1741,es_bo_2004_07_23_474_f,119,AN
mixed,4,2,6,7,0,0,1,814,es_bo_2004_07_23_474_f,120,AN
food,1,1,6,5,1,1,1,1437,fe_al_1988_05_06_180_f,1,AN
food,2,1,5,2,1,0,1,1365,fe_al_1988_05_06_180_f,2,AN
food,1,1,1,4,1,0,1,686,fe_al_1988_05_06_180_f,3,AN
food,2,1,5,5,1,0,1,905,fe_al_1988_05_06_180_f,4,AN
food,1,1,3,8,1,0,1,1231,fe_al_1988_05_06_180_f,5,AN
food,2,1,7,4,1,0,1,694,fe_al_1988_05_06_180_f,6,AN
food,1,1,3,7,1,0,1,979,fe_al_1988_05_06_180_f,7,AN
food,2,1,8,5,1,0,1,1175,fe_al_1988_05_06_180_f,8,AN
food,1,1,2,7,1,0,1,787,fe_al_1988_05_06_180_f,9,AN
food,2,1,5,1,1,0,1,802,fe_al_1988_05_06_180_f,10,AN
food,1,1,6,4,1,0,1,915,fe_al_1988_05_06_180_f,11,AN
food,2,1,5,7,1,0,1,850,fe_al_1988_05_06_180_f,12,AN
food,1,1,1,3,1,0,1,714,fe_al_1988_05_06_180_f,13,AN
food,2,1,7,4,1,0,1,1332,fe_al_1988_05_06_180_f,14,AN
food,1,1,8,7,1,0,1,1305,fe_al_1988_05_06_180_f,15,AN
food,2,1,5,6,1,0,1,798,fe_al_1988_05_06_180_f,16,AN
food,1,1,8,3,1,0,1,715,fe_al_1988_05_06_180_f,17,AN
food,2,1,7,1,1,0,1,1728,fe_al_1988_05_06_180_f,18,AN
food,1,1,1,4,1,0,1,575,fe_al_1988_05_06_180_f,19,AN
food,2,1,8,3,1,0,1,576,fe_al_1988_05_06_180_f,20,AN
food,1,1,6,5,1,0,1,2458,fe_al_1988_05_06_180_f,21,AN
food,2,1,5,3,1,0,1,646,fe_al_1988_05_06_180_f,22,AN
food,1,1,7,4,1,0,1,744,fe_al_1988_05_06_180_f,23,AN
food,2,1,6,2,1,0,1,772,fe_al_1988_05_06_180_f,24,AN
food,1,1,1,5,1,0,1,615,fe_al_1988_05_06_180_f,25,AN
food,2,1,8,4,1,0,1,760,fe_al_1988_05_06_180_f,26,AN
food,1,1,7,5,1,0,1,1089,fe_al_1988_05_06_180_f,27,AN
food,2,1,1,6,1,0,1,609,fe_al_1988_05_06_180_f,28,AN
food,1,1,8,7,1,0,1,662,fe_al_1988_05_06_180_f,29,AN
food,2,1,1,8,1,0,1,1008,fe_al_1988_05_06_180_f,30,AN
food,1,1,5,3,1,0,1,728,fe_al_1988_05_06_180_f,31,AN
food,2,1,1,2,1,0,1,937,fe_al_1988_05_06_180_f,32,AN
food,1,1,2,6,1,0,1,1061,fe_al_1988_05_06_180_f,33,AN
food,2,1,4,5,1,0,1,2011,fe_al_1988_05_06_180_f,34,AN
food,1,1,5,3,1,0,1,721,fe_al_1988_05_06_180_f,35,AN
food,2,1,6,2,1,0,1,1053,fe_al_1988_05_06_180_f,36,AN
food,1,1,5,8,1,0,1,539,fe_al_1988_05_06_180_f,37,AN
food,2,1,7,1,1,0,1,630,fe_al_1988_05_06_180_f,38,AN
food,1,1,4,4,1,0,1,1012,fe_al_1988_05_06_180_f,39,AN
food,2,1,7,6,1,0,1,563,fe_al_1988_05_06_180_f,40,AN
plants,3,2,4,5,2,1,1,1027,fe_al_1988_05_06_180_f,41,AN
plants,4,2,6,7,2,0,1,853,fe_al_1988_05_06_180_f,42,AN
plants,3,2,2,6,2,0,1,840,fe_al_1988_05_06_180_f,43,AN
plants,4,2,3,3,2,0,1,635,fe_al_1988_05_06_180_f,44,AN
plants,3,2,2,4,2,0,1,686,fe_al_1988_05_06_180_f,45,AN
plants,4,2,6,8,2,0,1,555,fe_al_1988_05_06_180_f,46,AN
plants,3,2,3,4,2,0,1,878,fe_al_1988_05_06_180_f,47,AN
plants,4,2,2,6,2,0,1,631,fe_al_1988_05_06_180_f,48,AN
plants,3,2,6,7,2,0,1,879,fe_al_1988_05_06_180_f,49,AN
plants,4,2,3,1,2,0,1,778,fe_al_1988_05_06_180_f,50,AN
plants,3,2,1,5,2,0,1,655,fe_al_1988_05_06_180_f,51,AN
plants,4,2,3,4,2,0,1,493,fe_al_1988_05_06_180_f,52,AN
plants,3,2,5,8,2,0,1,458,fe_al_1988_05_06_180_f,53,AN
plants,4,2,2,4,2,0,1,441,fe_al_1988_05_06_180_f,54,AN
plants,3,2,7,8,2,0,1,463,fe_al_1988_05_06_180_f,55,AN
plants,4,2,1,6,2,0,1,639,fe_al_1988_05_06_180_f,56,AN
plants,3,2,2,8,2,0,1,573,fe_al_1988_05_06_180_f,57,AN
plants,4,2,6,6,2,0,1,618,fe_al_1988_05_06_180_f,58,AN
plants,3,2,3,1,2,0,1,710,fe_al_1988_05_06_180_f,59,AN
plants,4,2,4,2,2,0,1,564,fe_al_1988_05_06_180_f,60,AN
plants,3,2,8,7,2,0,1,550,fe_al_1988_05_06_180_f,61,AN
plants,4,2,1,2,2,0,1,857,fe_al_1988_05_06_180_f,62,AN
plants,3,2,6,6,2,0,1,502,fe_al_1988_05_06_180_f,63,AN
plants,4,2,7,8,2,0,1,798,fe_al_1988_05_06_180_f,64,AN
plants,3,2,4,7,2,0,1,642,fe_al_1988_05_06_180_f,65,AN
plants,4,2,6,4,2,0,1,693,fe_al_1988_05_06_180_f,66,AN
plants,3,2,2,8,2,0,1,515,fe_al_1988_05_06_180_f,67,AN
plants,4,2,5,7,2,0,1,1001,fe_al_1988_05_06_180_f,68,AN
plants,3,2,7,6,2,0,1,519,fe_al_1988_05_06_180_f,69,AN
plants,4,2,4,4,2,0,1,886,fe_al_1988_05_06_180_f,70,AN
plants,3,2,2,7,2,0,1,480,fe_al_1988_05_06_180_f,71,AN
plants,4,2,1,8,2,0,1,625,fe_al_1988_05_06_180_f,72,AN
plants,3,2,5,6,2,0,1,676,fe_al_1988_05_06_180_f,73,AN
plants,4,2,4,7,2,0,1,467,fe_al_1988_05_06_180_f,74,AN
plants,3,2,2,1,2,0,1,682,fe_al_1988_05_06_180_f,75,AN
plants,4,2,3,3,2,0,1,748,fe_al_1988_05_06_180_f,76,AN
plants,3,2,6,4,2,0,1,701,fe_al_1988_05_06_180_f,77,AN
plants,4,2,4,6,2,0,1,659,fe_al_1988_05_06_180_f,78,AN
plants,3,2,7,5,2,0,1,632,fe_al_1988_05_06_180_f,79,AN
plants,4,2,6,2,2,0,1,919,fe_al_1988_05_06_180_f,80,AN
mixed,1,1,3,1,0,1,1,1985,fe_al_1988_05_06_180_f,81,AN
mixed,2,1,8,2,0,0,1,1167,fe_al_1988_05_06_180_f,82,AN
mixed,3,2,4,3,0,1,1,1780,fe_al_1988_05_06_180_f,83,AN
mixed,4,2,5,6,0,0,1,1221,fe_al_1988_05_06_180_f,84,AN
mixed,1,1,7,2,0,1,1,1174,fe_al_1988_05_06_180_f,85,AN
mixed,2,1,5,1,0,0,1,957,fe_al_1988_05_06_180_f,86,AN
mixed,3,2,6,8,0,1,1,1167,fe_al_1988_05_06_180_f,87,AN
mixed,4,2,3,4,0,0,1,967,fe_al_1988_05_06_180_f,88,AN
mixed,1,1,6,3,0,1,1,1893,fe_al_1988_05_06_180_f,89,AN
mixed,2,1,7,1,0,0,1,1131,fe_al_1988_05_06_180_f,90,AN
mixed,3,2,6,6,0,1,1,1935,fe_al_1988_05_06_180_f,91,AN
mixed,4,2,8,4,0,0,1,887,fe_al_1988_05_06_180_f,92,AN
mixed,1,1,1,3,0,1,1,1094,fe_al_1988_05_06_180_f,93,AN
mixed,2,1,5,1,0,0,1,2264,fe_al_1988_05_06_180_f,94,AN
mixed,3,2,6,2,0,1,1,3389,fe_al_1988_05_06_180_f,95,AN
mixed,4,2,7,3,0,0,1,943,fe_al_1988_05_06_180_f,96,AN
mixed,1,1,4,1,0,1,2,2048,fe_al_1988_05_06_180_f,97,AN
mixed,2,1,8,5,0,0,1,2194,fe_al_1988_05_06_180_f,98,AN
mixed,3,2,7,7,0,1,1,1478,fe_al_1988_05_06_180_f,99,AN
mixed,4,2,6,6,0,0,1,2070,fe_al_1988_05_06_180_f,100,AN
mixed,1,1,7,4,0,1,1,1458,fe_al_1988_05_06_180_f,101,AN
mixed,2,1,8,3,0,0,1,3026,fe_al_1988_05_06_180_f,102,AN
mixed,3,2,2,4,0,1,1,1624,fe_al_1988_05_06_180_f,103,AN
mixed,4,2,3,8,0,0,1,1542,fe_al_1988_05_06_180_f,104,AN
mixed,1,1,2,7,0,1,1,1308,fe_al_1988_05_06_180_f,105,AN
mixed,2,1,8,4,0,0,1,1404,fe_al_1988_05_06_180_f,106,AN
mixed,3,2,1,2,0,1,1,1880,fe_al_1988_05_06_180_f,107,AN
mixed,4,2,7,6,0,0,1,777,fe_al_1988_05_06_180_f,108,AN
mixed,1,1,5,2,0,1,1,1404,fe_al_1988_05_06_180_f,109,AN
mixed,2,1,1,6,0,0,1,1026,fe_al_1988_05_06_180_f,110,AN
mixed,3,2,7,5,0,1,1,1299,fe_al_1988_05_06_180_f,111,AN
mixed,4,2,5,1,0,0,1,1304,fe_al_1988_05_06_180_f,112,AN
mixed,1,1,2,2,0,1,1,1205,fe_al_1988_05_06_180_f,113,AN
mixed,2,1,5,8,0,0,1,1520,fe_al_1988_05_06_180_f,114,AN
mixed,3,2,3,2,0,1,1,1336,fe_al_1988_05_06_180_f,115,AN
mixed,4,2,6,3,0,0,1,1113,fe_al_1988_05_06_180_f,116,AN
mixed,1,1,3,1,0,1,1,1451,fe_al_1988_05_06_180_f,117,AN
mixed,2,1,6,2,0,0,1,1247,fe_al_1988_05_06_180_f,118,AN
mixed,3,2,5,1,0,1,1,1298,fe_al_1988_05_06_180_f,119,AN
mixed,4,2,1,6,0,0,1,1127,fe_al_1988_05_06_180_f,120,AN
food,1,1,8,5,1,1,1,1882,el_ma_1986_06_14_839_f,1,AN
food,2,1,4,6,1,0,1,986,el_ma_1986_06_14_839_f,2,AN
food,1,1,1,2,1,0,1,1102,el_ma_1986_06_14_839_f,3,AN
food,2,1,3,5,1,0,1,913,el_ma_1986_06_14_839_f,4,AN
food,1,1,6,4,1,0,1,838,el_ma_1986_06_14_839_f,5,AN
food,2,1,2,7,1,0,1,1519,el_ma_1986_06_14_839_f,6,AN
food,1,1,8,6,1,0,1,1393,el_ma_1986_06_14_839_f,7,AN
food,2,1,5,8,1,0,1,1393,el_ma_1986_06_14_839_f,8,AN
food,1,1,7,5,1,0,1,926,el_ma_1986_06_14_839_f,9,AN
food,2,1,6,6,1,0,1,943,el_ma_1986_06_14_839_f,10,AN
food,1,1,7,4,1,0,1,739,el_ma_1986_06_14_839_f,11,AN
food,2,1,8,8,1,0,1,1006,el_ma_1986_06_14_839_f,12,AN
food,1,1,2,6,1,0,1,873,el_ma_1986_06_14_839_f,13,AN
food,2,1,8,3,1,0,1,831,el_ma_1986_06_14_839_f,14,AN
food,1,1,7,2,1,0,1,1190,el_ma_1986_06_14_839_f,15,AN
food,2,1,5,8,1,0,1,837,el_ma_1986_06_14_839_f,16,AN
food,1,1,4,4,1,0,1,859,el_ma_1986_06_14_839_f,17,AN
food,2,1,8,2,1,0,1,1543,el_ma_1986_06_14_839_f,18,AN
food,1,1,4,7,1,0,1,955,el_ma_1986_06_14_839_f,19,AN
food,2,1,1,5,1,0,1,786,el_ma_1986_06_14_839_f,20,AN
food,1,1,7,7,1,0,1,568,el_ma_1986_06_14_839_f,21,AN
food,2,1,8,8,1,0,1,732,el_ma_1986_06_14_839_f,22,AN
food,1,1,2,2,1,0,1,904,el_ma_1986_06_14_839_f,23,AN
food,2,1,6,1,1,0,1,716,el_ma_1986_06_14_839_f,24,AN
food,1,1,3,8,1,0,1,1151,el_ma_1986_06_14_839_f,25,AN
food,2,1,1,2,1,0,2,938,el_ma_1986_06_14_839_f,26,AN
food,1,1,7,8,1,0,1,1138,el_ma_1986_06_14_839_f,27,AN
food,2,1,2,7,1,0,1,785,el_ma_1986_06_14_839_f,28,AN
food,1,1,8,8,1,0,1,832,el_ma_1986_06_14_839_f,29,AN
food,2,1,4,5,1,0,1,722,el_ma_1986_06_14_839_f,30,AN
food,1,1,3,3,1,0,1,1204,el_ma_1986_06_14_839_f,31,AN
food,2,1,1,8,1,0,1,816,el_ma_1986_06_14_839_f,32,AN
food,1,1,5,7,1,0,1,669,el_ma_1986_06_14_839_f,33,AN
food,2,1,7,6,1,0,1,979,el_ma_1986_06_14_839_f,34,AN
food,1,1,3,5,1,0,1,714,el_ma_1986_06_14_839_f,35,AN
food,2,1,7,7,1,0,1,865,el_ma_1986_06_14_839_f,36,AN
food,1,1,4,3,1,0,1,974,el_ma_1986_06_14_839_f,37,AN
food,2,1,7,4,1,0,1,625,el_ma_1986_06_14_839_f,38,AN
food,1,1,1,8,1,0,1,641,el_ma_1986_06_14_839_f,39,AN
food,2,1,6,6,1,0,1,1144,el_ma_1986_06_14_839_f,40,AN
plants,3,2,8,1,2,1,1,1974,el_ma_1986_06_14_839_f,41,AN
plants,4,2,7,8,2,0,1,797,el_ma_1986_06_14_839_f,42,AN
plants,3,2,4,6,2,0,1,1117,el_ma_1986_06_14_839_f,43,AN
plants,4,2,2,4,2,0,1,649,el_ma_1986_06_14_839_f,44,AN
plants,3,2,1,3,2,0,1,1389,el_ma_1986_06_14_839_f,45,AN
plants,4,2,4,6,2,0,1,689,el_ma_1986_06_14_839_f,46,AN
plants,3,2,6,4,2,0,1,741,el_ma_1986_06_14_839_f,47,AN
plants,4,2,4,6,2,0,1,660,el_ma_1986_06_14_839_f,48,AN
plants,3,2,5,5,2,0,1,889,el_ma_1986_06_14_839_f,49,AN
plants,4,2,2,8,2,0,1,711,el_ma_1986_06_14_839_f,50,AN
plants,3,2,3,1,2,0,1,731,el_ma_1986_06_14_839_f,51,AN
plants,4,2,6,2,2,0,2,1029,el_ma_1986_06_14_839_f,52,AN
plants,3,2,2,1,2,0,1,1328,el_ma_1986_06_14_839_f,53,AN
plants,4,2,6,3,2,0,1,748,el_ma_1986_06_14_839_f,54,AN
plants,3,2,7,6,2,0,1,504,el_ma_1986_06_14_839_f,55,AN
plants,4,2,6,1,2,0,1,805,el_ma_1986_06_14_839_f,56,AN
plants,3,2,8,8,2,0,1,813,el_ma_1986_06_14_839_f,57,AN
plants,4,2,7,6,2,0,1,890,el_ma_1986_06_14_839_f,58,AN
plants,3,2,5,3,2,0,1,816,el_ma_1986_06_14_839_f,59,AN
plants,4,2,4,5,2,0,1,743,el_ma_1986_06_14_839_f,60,AN
plants,3,2,7,2,2,0,1,771,el_ma_1986_06_14_839_f,61,AN
plants,4,2,5,3,2,0,1,774,el_ma_1986_06_14_839_f,62,AN
plants,3,2,3,6,2,0,1,666,el_ma_1986_06_14_839_f,63,AN
plants,4,2,8,2,2,0,1,726,el_ma_1986_06_14_839_f,64,AN
plants,3,2,2,1,2,0,1,915,el_ma_1986_06_14_839_f,65,AN
plants,4,2,4,7,2,0,1,2084,el_ma_1986_06_14_839_f,66,AN
plants,3,2,6,2,2,0,1,819,el_ma_1986_06_14_839_f,67,AN
plants,4,2,2,1,2,0,1,843,el_ma_1986_06_14_839_f,68,AN
plants,3,2,3,8,2,0,1,795,el_ma_1986_06_14_839_f,69,AN
plants,4,2,7,6,2,0,1,869,el_ma_1986_06_14_839_f,70,AN
plants,3,2,5,4,2,0,1,922,el_ma_1986_06_14_839_f,71,AN
plants,4,2,6,8,2,0,1,850,el_ma_1986_06_14_839_f,72,AN
plants,3,2,7,5,2,0,1,755,el_ma_1986_06_14_839_f,73,AN
plants,4,2,6,7,2,0,1,668,el_ma_1986_06_14_839_f,74,AN
plants,3,2,1,5,2,0,1,601,el_ma_1986_06_14_839_f,75,AN
plants,4,2,3,4,2,0,1,662,el_ma_1986_06_14_839_f,76,AN
plants,3,2,5,8,2,0,1,567,el_ma_1986_06_14_839_f,77,AN
plants,4,2,7,7,2,0,1,752,el_ma_1986_06_14_839_f,78,AN
plants,3,2,8,6,2,0,1,548,el_ma_1986_06_14_839_f,79,AN
plants,4,2,5,5,2,0,1,668,el_ma_1986_06_14_839_f,80,AN
mixed,1,1,3,1,0,1,1,2684,el_ma_1986_06_14_839_f,81,AN
mixed,2,1,1,5,0,0,2,944,el_ma_1986_06_14_839_f,82,AN
mixed,3,2,6,1,0,1,1,2968,el_ma_1986_06_14_839_f,83,AN
mixed,4,2,1,3,0,0,1,1109,el_ma_1986_06_14_839_f,84,AN
mixed,1,1,2,1,0,1,1,1766,el_ma_1986_06_14_839_f,85,AN
mixed,2,1,5,7,0,0,1,1119,el_ma_1986_06_14_839_f,86,AN
mixed,3,2,8,4,0,1,1,1094,el_ma_1986_06_14_839_f,87,AN
mixed,4,2,4,1,0,0,1,1167,el_ma_1986_06_14_839_f,88,AN
mixed,1,1,5,2,0,1,1,1947,el_ma_1986_06_14_839_f,89,AN
mixed,2,1,1,8,0,0,1,1155,el_ma_1986_06_14_839_f,90,AN
mixed,3,2,7,2,0,1,1,2007,el_ma_1986_06_14_839_f,91,AN
mixed,4,2,2,6,0,0,1,796,el_ma_1986_06_14_839_f,92,AN
mixed,1,1,5,4,0,1,1,1596,el_ma_1986_06_14_839_f,93,AN
mixed,2,1,1,7,0,0,1,740,el_ma_1986_06_14_839_f,94,AN
mixed,3,2,3,6,0,1,1,1281,el_ma_1986_06_14_839_f,95,AN
mixed,4,2,2,1,0,0,1,750,el_ma_1986_06_14_839_f,96,AN
mixed,1,1,7,5,0,1,1,1573,el_ma_1986_06_14_839_f,97,AN
mixed,2,1,1,6,0,0,1,788,el_ma_1986_06_14_839_f,98,AN
mixed,3,2,4,7,0,1,1,1182,el_ma_1986_06_14_839_f,99,AN
mixed,4,2,5,8,0,0,1,894,el_ma_1986_06_14_839_f,100,AN
mixed,1,1,8,6,0,1,1,1650,el_ma_1986_06_14_839_f,101,AN
mixed,2,1,3,2,0,0,1,1143,el_ma_1986_06_14_839_f,102,AN
mixed,3,2,6,6,0,1,1,932,el_ma_1986_06_14_839_f,103,AN
mixed,4,2,1,1,0,0,1,727,el_ma_1986_06_14_839_f,104,AN
mixed,1,1,4,5,0,1,2,929,el_ma_1986_06_14_839_f,105,AN
mixed,2,1,7,8,0,0,1,1918,el_ma_1986_06_14_839_f,106,AN
mixed,3,2,1,3,0,1,1,2139,el_ma_1986_06_14_839_f,107,AN
mixed,4,2,2,5,0,0,1,752,el_ma_1986_06_14_839_f,108,AN
mixed,1,1,7,4,0,1,1,1744,el_ma_1986_06_14_839_f,109,AN
mixed,2,1,3,2,0,0,1,767,el_ma_1986_06_14_839_f,110,AN
mixed,3,2,4,7,0,1,1,1199,el_ma_1986_06_14_839_f,111,AN
mixed,4,2,6,5,0,0,1,768,el_ma_1986_06_14_839_f,112,AN
mixed,1,1,7,1,0,1,1,1269,el_ma_1986_06_14_839_f,113,AN
mixed,2,1,4,3,0,0,1,837,el_ma_1986_06_14_839_f,114,AN
mixed,3,2,8,4,0,1,1,1865,el_ma_1986_06_14_839_f,115,AN
mixed,4,2,4,8,0,0,1,873,el_ma_1986_06_14_839_f,116,AN
mixed,1,1,1,3,0,1,1,1638,el_ma_1986_06_14_839_f,117,AN
mixed,2,1,8,4,0,0,1,2816,el_ma_1986_06_14_839_f,118,AN
mixed,3,2,2,2,0,1,1,1978,el_ma_1986_06_14_839_f,119,AN
mixed,4,2,3,6,0,0,1,713,el_ma_1986_06_14_839_f,120,AN
food,1,1,3,8,1,1,1,2681,gr_de_2002_09_21_426_f,1,AN
food,2,1,7,6,1,0,1,898,gr_de_2002_09_21_426_f,2,AN
food,1,1,5,1,1,0,2,861,gr_de_2002_09_21_426_f,3,AN
food,2,1,2,2,1,0,1,1962,gr_de_2002_09_21_426_f,4,AN
food,1,1,8,4,1,0,1,1287,gr_de_2002_09_21_426_f,5,AN
food,2,1,1,1,1,0,1,775,gr_de_2002_09_21_426_f,6,AN
food,1,1,8,2,1,0,1,1166,gr_de_2002_09_21_426_f,7,AN
food,2,1,4,3,1,0,1,1443,gr_de_2002_09_21_426_f,8,AN
food,1,1,1,7,1,0,1,840,gr_de_2002_09_21_426_f,9,AN
food,2,1,5,4,1,0,1,798,gr_de_2002_09_21_426_f,10,AN
food,1,1,8,3,1,0,1,1148,gr_de_2002_09_21_426_f,11,AN
food,2,1,5,2,1,0,1,828,gr_de_2002_09_21_426_f,12,AN
food,1,1,8,6,1,0,1,1043,gr_de_2002_09_21_426_f,13,AN
food,2,1,5,1,1,0,1,809,gr_de_2002_09_21_426_f,14,AN
food,1,1,6,4,1,0,1,659,gr_de_2002_09_21_426_f,15,AN
food,2,1,5,2,1,0,1,508,gr_de_2002_09_21_426_f,16,AN
food,1,1,7,8,1,0,1,778,gr_de_2002_09_21_426_f,17,AN
food,2,1,8,1,1,0,1,600,gr_de_2002_09_21_426_f,18,AN
food,1,1,4,7,1,0,1,657,gr_de_2002_09_21_426_f,19,AN
food,2,1,5,2,1,0,1,794,gr_de_2002_09_21_426_f,20,AN
food,1,1,1,5,1,0,1,619,gr_de_2002_09_21_426_f,21,AN
food,2,1,2,1,1,0,1,763,gr_de_2002_09_21_426_f,22,AN
food,1,1,4,7,1,0,1,719,gr_de_2002_09_21_426_f,23,AN
food,2,1,6,1,1,0,1,851,gr_de_2002_09_21_426_f,24,AN
food,1,1,8,3,1,0,1,981,gr_de_2002_09_21_426_f,25,AN
food,2,1,1,4,1,0,1,717,gr_de_2002_09_21_426_f,26,AN
food,1,1,6,2,1,0,1,1015,gr_de_2002_09_21_426_f,27,AN
food,2,1,3,3,1,0,1,811,gr_de_2002_09_21_426_f,28,AN
food,1,1,4,6,1,0,1,755,gr_de_2002_09_21_426_f,29,AN
food,2,1,3,1,1,0,1,747,gr_de_2002_09_21_426_f,30,AN
food,1,1,5,4,1,0,1,1015,gr_de_2002_09_21_426_f,31,AN
food,2,1,6,2,1,0,1,570,gr_de_2002_09_21_426_f,32,AN
food,1,1,5,5,1,0,1,727,gr_de_2002_09_21_426_f,33,AN
food,2,1,2,1,1,0,1,712,gr_de_2002_09_21_426_f,34,AN
food,1,1,6,6,1,0,1,922,gr_de_2002_09_21_426_f,35,AN
food,2,1,7,7,1,0,1,662,gr_de_2002_09_21_426_f,36,AN
food,1,1,5,6,1,0,1,662,gr_de_2002_09_21_426_f,37,AN
food,2,1,2,3,1,0,1,644,gr_de_2002_09_21_426_f,38,AN
food,1,1,7,4,1,0,1,677,gr_de_2002_09_21_426_f,39,AN
food,2,1,1,6,1,0,1,589,gr_de_2002_09_21_426_f,40,AN
plants,3,2,3,8,2,1,1,1941,gr_de_2002_09_21_426_f,41,AN
plants,4,2,6,1,2,0,1,952,gr_de_2002_09_21_426_f,42,AN
plants,3,2,7,2,2,0,1,1060,gr_de_2002_09_21_426_f,43,AN
plants,4,2,4,8,2,0,1,778,gr_de_2002_09_21_426_f,44,AN
plants,3,2,7,1,2,0,1,686,gr_de_2002_09_21_426_f,45,AN
plants,4,2,6,8,2,0,1,691,gr_de_2002_09_21_426_f,46,AN
plants,3,2,7,7,2,0,1,636,gr_de_2002_09_21_426_f,47,AN
plants,4,2,2,6,2,0,1,859,gr_de_2002_09_21_426_f,48,AN
plants,3,2,5,5,2,0,1,799,gr_de_2002_09_21_426_f,49,AN
plants,4,2,7,3,2,0,1,704,gr_de_2002_09_21_426_f,50,AN
plants,3,2,3,2,2,0,1,686,gr_de_2002_09_21_426_f,51,AN
plants,4,2,7,6,2,0,1,839,gr_de_2002_09_21_426_f,52,AN
plants,3,2,6,1,2,0,1,834,gr_de_2002_09_21_426_f,53,AN
plants,4,2,5,4,2,0,1,1496,gr_de_2002_09_21_426_f,54,AN
plants,3,2,4,3,2,0,1,1065,gr_de_2002_09_21_426_f,55,AN
plants,4,2,8,1,2,0,1,790,gr_de_2002_09_21_426_f,56,AN
plants,3,2,6,2,2,0,1,654,gr_de_2002_09_21_426_f,57,AN
plants,4,2,7,5,2,0,1,668,gr_de_2002_09_21_426_f,58,AN
plants,3,2,5,4,2,0,1,640,gr_de_2002_09_21_426_f,59,AN
plants,4,2,4,6,2,0,1,738,gr_de_2002_09_21_426_f,60,AN
plants,3,2,7,7,2,0,1,558,gr_de_2002_09_21_426_f,61,AN
plants,4,2,4,6,2,0,1,537,gr_de_2002_09_21_426_f,62,AN
plants,3,2,6,5,2,0,1,482,gr_de_2002_09_21_426_f,63,AN
plants,4,2,4,7,2,0,1,461,gr_de_2002_09_21_426_f,64,AN
plants,3,2,1,6,2,0,1,602,gr_de_2002_09_21_426_f,65,AN
plants,4,2,6,2,2,0,1,747,gr_de_2002_09_21_426_f,66,AN
plants,3,2,3,1,2,0,1,990,gr_de_2002_09_21_426_f,67,AN
plants,4,2,4,7,2,0,1,592,gr_de_2002_09_21_426_f,68,AN
plants,3,2,7,1,2,0,1,688,gr_de_2002_09_21_426_f,69,AN
plants,4,2,2,2,2,0,1,574,gr_de_2002_09_21_426_f,70,AN
plants,3,2,6,8,2,0,1,538,gr_de_2002_09_21_426_f,71,AN
plants,4,2,8,4,2,0,1,740,gr_de_2002_09_21_426_f,72,AN
plants,3,2,5,3,2,0,1,572,gr_de_2002_09_21_426_f,73,AN
plants,4,2,1,8,2,0,1,574,gr_de_2002_09_21_426_f,74,AN
plants,3,2,8,7,2,0,1,503,gr_de_2002_09_21_426_f,75,AN
plants,4,2,7,3,2,0,1,593,gr_de_2002_09_21_426_f,76,AN
plants,3,2,4,5,2,0,1,637,gr_de_2002_09_21_426_f,77,AN
plants,4,2,7,2,2,0,1,582,gr_de_2002_09_21_426_f,78,AN
plants,3,2,8,5,2,0,1,582,gr_de_2002_09_21_426_f,79,AN
plants,4,2,5,3,2,0,1,433,gr_de_2002_09_21_426_f,80,AN
mixed,1,1,7,5,0,1,3,5000,gr_de_2002_09_21_426_f,81,AN
mixed,2,1,3,7,0,0,1,1156,gr_de_2002_09_21_426_f,82,AN
mixed,3,2,6,4,0,1,1,3322,gr_de_2002_09_21_426_f,83,AN
mixed,4,2,3,3,0,0,1,1815,gr_de_2002_09_21_426_f,84,AN
mixed,1,1,1,7,0,1,1,1887,gr_de_2002_09_21_426_f,85,AN
mixed,2,1,3,4,0,0,1,746,gr_de_2002_09_21_426_f,86,AN
mixed,3,2,1,6,0,1,1,1050,gr_de_2002_09_21_426_f,87,AN
mixed,4,2,4,5,0,0,1,773,gr_de_2002_09_21_426_f,88,AN
mixed,1,1,7,7,0,1,1,1987,gr_de_2002_09_21_426_f,89,AN
mixed,2,1,3,3,0,0,1,1858,gr_de_2002_09_21_426_f,90,AN
mixed,3,2,5,1,0,1,1,1444,gr_de_2002_09_21_426_f,91,AN
mixed,4,2,3,7,0,0,1,776,gr_de_2002_09_21_426_f,92,AN
mixed,1,1,7,4,0,1,1,1122,gr_de_2002_09_21_426_f,93,AN
mixed,2,1,5,6,0,0,1,1302,gr_de_2002_09_21_426_f,94,AN
mixed,3,2,2,7,0,1,1,1534,gr_de_2002_09_21_426_f,95,AN
mixed,4,2,7,2,0,0,1,1231,gr_de_2002_09_21_426_f,96,AN
mixed,1,1,3,6,0,1,1,1458,gr_de_2002_09_21_426_f,97,AN
mixed,2,1,6,8,0,0,2,2282,gr_de_2002_09_21_426_f,98,AN
mixed,3,2,8,7,0,1,1,1458,gr_de_2002_09_21_426_f,99,AN
mixed,4,2,4,6,0,0,1,806,gr_de_2002_09_21_426_f,100,AN
mixed,1,1,2,3,0,1,1,1409,gr_de_2002_09_21_426_f,101,AN
mixed,2,1,5,1,0,0,1,1041,gr_de_2002_09_21_426_f,102,AN
mixed,3,2,4,2,0,1,1,1403,gr_de_2002_09_21_426_f,103,AN
mixed,4,2,3,1,0,0,1,1861,gr_de_2002_09_21_426_f,104,AN
mixed,1,1,1,8,0,1,1,1509,gr_de_2002_09_21_426_f,105,AN
mixed,2,1,3,4,0,0,1,1678,gr_de_2002_09_21_426_f,106,AN
mixed,3,2,1,7,0,1,1,1231,gr_de_2002_09_21_426_f,107,AN
mixed,4,2,2,2,0,0,1,1355,gr_de_2002_09_21_426_f,108,AN
mixed,1,1,4,1,0,1,1,1501,gr_de_2002_09_21_426_f,109,AN
mixed,2,1,1,5,0,0,1,1610,gr_de_2002_09_21_426_f,110,AN
mixed,3,2,3,4,0,1,1,1664,gr_de_2002_09_21_426_f,111,AN
mixed,4,2,7,7,0,0,1,754,gr_de_2002_09_21_426_f,112,AN
mixed,1,1,3,6,0,1,1,1729,gr_de_2002_09_21_426_f,113,AN
mixed,2,1,8,5,0,0,1,1701,gr_de_2002_09_21_426_f,114,AN
mixed,3,2,6,8,0,1,1,1198,gr_de_2002_09_21_426_f,115,AN
mixed,4,2,2,2,0,0,1,953,gr_de_2002_09_21_426_f,116,AN
mixed,1,1,5,7,0,1,1,1405,gr_de_2002_09_21_426_f,117,AN
mixed,2,1,2,6,0,0,1,1332,gr_de_2002_09_21_426_f,118,AN
mixed,3,2,6,4,0,1,1,1140,gr_de_2002_09_21_426_f,119,AN
mixed,4,2,4,6,0,0,1,907,gr_de_2002_09_21_426_f,120,AN
food,1,1,6,6,1,1,1,3723,am_gu_1999_02_11_937_f,1,AN
food,2,1,7,7,1,0,1,1819,am_gu_1999_02_11_937_f,2,AN
food,1,1,1,8,1,0,1,2591,am_gu_1999_02_11_937_f,3,AN
food,2,1,6,7,1,0,1,1382,am_gu_1999_02_11_937_f,4,AN
food,1,1,7,5,1,0,1,1307,am_gu_1999_02_11_937_f,5,AN
food,2,1,8,1,1,0,1,1250,am_gu_1999_02_11_937_f,6,AN
food,1,1,6,4,1,0,1,1822,am_gu_1999_02_11_937_f,7,AN
food,2,1,1,3,1,0,1,1183,am_gu_1999_02_11_937_f,8,AN
food,1,1,6,1,1,0,1,1256,am_gu_1999_02_11_937_f,9,AN
food,2,1,5,2,1,0,1,1096,am_gu_1999_02_11_937_f,10,AN
food,1,1,4,4,1,0,1,1167,am_gu_1999_02_11_937_f,11,AN
food,2,1,8,6,1,0,1,990,am_gu_1999_02_11_937_f,12,AN
food,1,1,1,2,1,0,1,1113,am_gu_1999_02_11_937_f,13,AN
food,2,1,5,5,1,0,1,863,am_gu_1999_02_11_937_f,14,AN
food,1,1,7,3,1,0,1,908,am_gu_1999_02_11_937_f,15,AN
food,2,1,3,1,1,0,1,839,am_gu_1999_02_11_937_f,16,AN
food,1,1,6,2,1,0,1,748,am_gu_1999_02_11_937_f,17,AN
food,2,1,1,3,1,0,1,913,am_gu_1999_02_11_937_f,18,AN
food,1,1,5,1,1,0,1,766,am_gu_1999_02_11_937_f,19,AN
food,2,1,4,4,1,0,1,902,am_gu_1999_02_11_937_f,20,AN
food,1,1,5,1,1,0,1,822,am_gu_1999_02_11_937_f,21,AN
food,2,1,7,8,1,0,2,1022,am_gu_1999_02_11_937_f,22,AN
food,1,1,3,5,1,0,1,1842,am_gu_1999_02_11_937_f,23,AN
food,2,1,1,1,1,0,1,1165,am_gu_1999_02_11_937_f,24,AN
food,1,1,5,3,1,0,1,987,am_gu_1999_02_11_937_f,25,AN
food,2,1,8,5,1,0,1,912,am_gu_1999_02_11_937_f,26,AN
food,1,1,1,2,1,0,1,1244,am_gu_1999_02_11_937_f,27,AN
food,2,1,6,6,1,0,1,1429,am_gu_1999_02_11_937_f,28,AN
food,1,1,5,2,1,0,1,1183,am_gu_1999_02_11_937_f,29,AN
food,2,1,4,6,1,0,1,834,am_gu_1999_02_11_937_f,30,AN
food,1,1,2,3,1,0,1,747,am_gu_1999_02_11_937_f,31,AN
food,2,1,4,2,1,0,1,701,am_gu_1999_02_11_937_f,32,AN
food,1,1,8,6,1,0,1,1348,am_gu_1999_02_11_937_f,33,AN
food,2,1,5,7,1,0,1,1389,am_gu_1999_02_11_937_f,34,AN
food,1,1,1,2,1,0,1,738,am_gu_1999_02_11_937_f,35,AN
food,2,1,3,6,1,0,1,1955,am_gu_1999_02_11_937_f,36,AN
food,1,1,7,5,1,0,1,687,am_gu_1999_02_11_937_f,37,AN
food,2,1,5,2,1,0,1,816,am_gu_1999_02_11_937_f,38,AN
food,1,1,3,6,1,0,1,713,am_gu_1999_02_11_937_f,39,AN
food,2,1,8,2,1,0,1,700,am_gu_1999_02_11_937_f,40,AN
plants,3,2,4,8,2,1,1,1495,am_gu_1999_02_11_937_f,41,AN
plants,4,2,1,1,2,0,1,1480,am_gu_1999_02_11_937_f,42,AN
plants,3,2,8,5,2,0,1,886,am_gu_1999_02_11_937_f,43,AN
plants,4,2,2,1,2,0,1,727,am_gu_1999_02_11_937_f,44,AN
plants,3,2,7,2,2,0,2,3166,am_gu_1999_02_11_937_f,45,AN
plants,4,2,5,4,2,0,1,819,am_gu_1999_02_11_937_f,46,AN
plants,3,2,8,2,2,0,1,641,am_gu_1999_02_11_937_f,47,AN
plants,4,2,1,8,2,0,1,802,am_gu_1999_02_11_937_f,48,AN
plants,3,2,3,4,2,0,1,979,am_gu_1999_02_11_937_f,49,AN
plants,4,2,1,3,2,0,1,628,am_gu_1999_02_11_937_f,50,AN
plants,3,2,4,6,2,0,1,949,am_gu_1999_02_11_937_f,51,AN
plants,4,2,6,8,2,0,1,1486,am_gu_1999_02_11_937_f,52,AN
plants,3,2,5,5,2,0,1,633,am_gu_1999_02_11_937_f,53,AN
plants,4,2,3,6,2,0,1,1435,am_gu_1999_02_11_937_f,54,AN
plants,3,2,4,1,2,0,1,825,am_gu_1999_02_11_937_f,55,AN
plants,4,2,7,2,2,0,1,633,am_gu_1999_02_11_937_f,56,AN
plants,3,2,6,6,2,0,1,834,am_gu_1999_02_11_937_f,57,AN
plants,4,2,2,3,2,0,1,1479,am_gu_1999_02_11_937_f,58,AN
plants,3,2,3,5,2,0,1,659,am_gu_1999_02_11_937_f,59,AN
plants,4,2,4,4,2,0,1,764,am_gu_1999_02_11_937_f,60,AN
plants,3,2,7,1,2,0,1,622,am_gu_1999_02_11_937_f,61,AN
plants,4,2,4,7,2,0,1,800,am_gu_1999_02_11_937_f,62,AN
plants,3,2,2,4,2,0,1,776,am_gu_1999_02_11_937_f,63,AN
plants,4,2,3,1,2,0,1,581,am_gu_1999_02_11_937_f,64,AN
plants,3,2,4,2,2,0,1,479,am_gu_1999_02_11_937_f,65,AN
plants,4,2,2,3,2,0,1,541,am_gu_1999_02_11_937_f,66,AN
plants,3,2,6,8,2,0,1,943,am_gu_1999_02_11_937_f,67,AN
plants,4,2,7,2,2,0,1,664,am_gu_1999_02_11_937_f,68,AN
plants,3,2,1,5,2,0,1,592,am_gu_1999_02_11_937_f,69,AN
plants,4,2,3,8,2,0,1,499,am_gu_1999_02_11_937_f,70,AN
plants,3,2,6,1,2,0,1,745,am_gu_1999_02_11_937_f,71,AN
plants,4,2,7,6,2,0,1,973,am_gu_1999_02_11_937_f,72,AN
plants,3,2,5,3,2,0,2,662,am_gu_1999_02_11_937_f,73,AN
plants,4,2,6,7,2,0,1,957,am_gu_1999_02_11_937_f,74,AN
plants,3,2,3,5,2,0,1,2661,am_gu_1999_02_11_937_f,75,AN
plants,4,2,5,4,2,0,1,609,am_gu_1999_02_11_937_f,76,AN
plants,3,2,4,6,2,0,1,830,am_gu_1999_02_11_937_f,77,AN
plants,4,2,8,2,2,0,1,1367,am_gu_1999_02_11_937_f,78,AN
plants,3,2,7,1,2,0,1,489,am_gu_1999_02_11_937_f,79,AN
plants,4,2,8,3,2,0,1,541,am_gu_1999_02_11_937_f,80,AN
mixed,1,1,4,1,0,1,1,2234,am_gu_1999_02_11_937_f,81,AN
mixed,2,1,6,5,0,0,1,895,am_gu_1999_02_11_937_f,82,AN
mixed,3,2,7,8,0,1,1,1685,am_gu_1999_02_11_937_f,83,AN
mixed,4,2,2,5,0,0,1,1875,am_gu_1999_02_11_937_f,84,AN
mixed,1,1,6,6,0,1,1,1506,am_gu_1999_02_11_937_f,85,AN
mixed,2,1,8,2,0,0,1,977,am_gu_1999_02_11_937_f,86,AN
mixed,3,2,2,1,0,1,1,1140,am_gu_1999_02_11_937_f,87,AN
mixed,4,2,7,2,0,0,1,628,am_gu_1999_02_11_937_f,88,AN
mixed,1,1,3,1,0,1,1,1469,am_gu_1999_02_11_937_f,89,AN
mixed,2,1,7,8,0,0,1,748,am_gu_1999_02_11_937_f,90,AN
mixed,3,2,5,7,0,1,1,2199,am_gu_1999_02_11_937_f,91,AN
mixed,4,2,1,6,0,0,1,710,am_gu_1999_02_11_937_f,92,AN
mixed,1,1,7,5,0,1,1,2231,am_gu_1999_02_11_937_f,93,AN
mixed,2,1,1,6,0,0,1,1043,am_gu_1999_02_11_937_f,94,AN
mixed,3,2,2,2,0,1,1,1025,am_gu_1999_02_11_937_f,95,AN
mixed,4,2,1,7,0,0,1,802,am_gu_1999_02_11_937_f,96,AN
mixed,1,1,4,5,0,1,1,2133,am_gu_1999_02_11_937_f,97,AN
mixed,2,1,5,7,0,0,1,733,am_gu_1999_02_11_937_f,98,AN
mixed,3,2,6,2,0,1,1,1806,am_gu_1999_02_11_937_f,99,AN
mixed,4,2,8,1,0,0,1,605,am_gu_1999_02_11_937_f,100,AN
mixed,1,1,2,6,0,1,2,694,am_gu_1999_02_11_937_f,101,AN
mixed,2,1,3,7,0,0,1,676,am_gu_1999_02_11_937_f,102,AN
mixed,3,2,4,5,0,1,1,1533,am_gu_1999_02_11_937_f,103,AN
mixed,4,2,8,7,0,0,1,852,am_gu_1999_02_11_937_f,104,AN
mixed,1,1,3,8,0,1,1,3148,am_gu_1999_02_11_937_f,105,AN
mixed,2,1,8,1,0,0,1,701,am_gu_1999_02_11_937_f,106,AN
mixed,3,2,7,2,0,1,1,2146,am_gu_1999_02_11_937_f,107,AN
mixed,4,2,8,6,0,0,1,712,am_gu_1999_02_11_937_f,108,AN
mixed,1,1,2,2,0,1,1,1261,am_gu_1999_02_11_937_f,109,AN
mixed,2,1,8,1,0,0,1,695,am_gu_1999_02_11_937_f,110,AN
mixed,3,2,4,4,0,1,1,1558,am_gu_1999_02_11_937_f,111,AN
mixed,4,2,8,3,0,0,1,603,am_gu_1999_02_11_937_f,112,AN
mixed,1,1,2,7,0,1,1,1349,am_gu_1999_02_11_937_f,113,AN
mixed,2,1,8,2,0,0,1,1992,am_gu_1999_02_11_937_f,114,AN
mixed,3,2,7,3,0,1,1,2505,am_gu_1999_02_11_937_f,115,AN
mixed,4,2,2,6,0,0,1,684,am_gu_1999_02_11_937_f,116,AN
mixed,1,1,4,4,0,1,1,1117,am_gu_1999_02_11_937_f,117,AN
mixed,2,1,8,7,0,0,1,685,am_gu_1999_02_11_937_f,118,AN
mixed,3,2,5,2,0,1,1,2647,am_gu_1999_02_11_937_f,119,AN
mixed,4,2,8,4,0,0,1,669,am_gu_1999_02_11_937_f,120,AN
food,1,1,1,6,1,1,1,2112,ir_bo_1981_03_29_325_f,1,AN
food,2,1,3,8,1,0,1,2157,ir_bo_1981_03_29_325_f,2,AN
food,1,1,7,2,1,0,1,842,ir_bo_1981_03_29_325_f,3,AN
food,2,1,1,3,1,0,1,1479,ir_bo_1981_03_29_325_f,4,AN
food,1,1,4,1,1,0,1,877,ir_bo_1981_03_29_325_f,5,AN
food,2,1,2,2,1,0,1,855,ir_bo_1981_03_29_325_f,6,AN
food,1,1,3,3,1,0,1,736,ir_bo_1981_03_29_325_f,7,AN
food,2,1,7,8,1,0,1,548,ir_bo_1981_03_29_325_f,8,AN
food,1,1,8,5,1,0,1,1111,ir_bo_1981_03_29_325_f,9,AN
food,2,1,7,8,1,0,1,871,ir_bo_1981_03_29_325_f,10,AN
food,1,1,3,7,1,0,1,531,ir_bo_1981_03_29_325_f,11,AN
food,2,1,7,3,1,0,1,680,ir_bo_1981_03_29_325_f,12,AN
food,1,1,6,5,1,0,1,1066,ir_bo_1981_03_29_325_f,13,AN
food,2,1,3,7,1,0,1,848,ir_bo_1981_03_29_325_f,14,AN
food,1,1,5,6,1,0,1,768,ir_bo_1981_03_29_325_f,15,AN
food,2,1,1,3,1,0,1,800,ir_bo_1981_03_29_325_f,16,AN
food,1,1,2,8,1,0,2,685,ir_bo_1981_03_29_325_f,17,AN
food,2,1,4,7,1,0,1,799,ir_bo_1981_03_29_325_f,18,AN
food,1,1,5,5,1,0,1,682,ir_bo_1981_03_29_325_f,19,AN
food,2,1,8,7,1,0,2,859,ir_bo_1981_03_29_325_f,20,AN
food,1,1,3,4,1,0,1,1344,ir_bo_1981_03_29_325_f,21,AN
food,2,1,4,6,1,0,1,669,ir_bo_1981_03_29_325_f,22,AN
food,1,1,2,1,1,0,1,730,ir_bo_1981_03_29_325_f,23,AN
food,2,1,1,7,1,0,1,698,ir_bo_1981_03_29_325_f,24,AN
food,1,1,5,5,1,0,1,591,ir_bo_1981_03_29_325_f,25,AN
food,2,1,1,4,1,0,1,597,ir_bo_1981_03_29_325_f,26,AN
food,1,1,4,6,1,0,1,710,ir_bo_1981_03_29_325_f,27,AN
food,2,1,2,3,1,0,1,681,ir_bo_1981_03_29_325_f,28,AN
food,1,1,4,1,1,0,1,536,ir_bo_1981_03_29_325_f,29,AN
food,2,1,7,7,1,0,1,594,ir_bo_1981_03_29_325_f,30,AN
food,1,1,4,8,1,0,1,596,ir_bo_1981_03_29_325_f,31,AN
food,2,1,7,1,1,0,1,619,ir_bo_1981_03_29_325_f,32,AN
food,1,1,5,6,1,0,1,743,ir_bo_1981_03_29_325_f,33,AN
food,2,1,4,5,1,0,1,545,ir_bo_1981_03_29_325_f,34,AN
food,1,1,2,1,1,0,1,739,ir_bo_1981_03_29_325_f,35,AN
food,2,1,8,6,1,0,1,687,ir_bo_1981_03_29_325_f,36,AN
food,1,1,2,8,1,0,1,640,ir_bo_1981_03_29_325_f,37,AN
food,2,1,7,3,1,0,1,529,ir_bo_1981_03_29_325_f,38,AN
food,1,1,2,7,1,0,1,655,ir_bo_1981_03_29_325_f,39,AN
food,2,1,4,5,1,0,1,642,ir_bo_1981_03_29_325_f,40,AN
plants,3,2,5,4,2,1,1,1212,ir_bo_1981_03_29_325_f,41,AN
plants,4,2,1,3,2,0,1,1055,ir_bo_1981_03_29_325_f,42,AN
plants,3,2,4,2,2,0,1,718,ir_bo_1981_03_29_325_f,43,AN
plants,4,2,5,4,2,0,1,636,ir_bo_1981_03_29_325_f,44,AN
plants,3,2,7,8,2,0,1,554,ir_bo_1981_03_29_325_f,45,AN
plants,4,2,6,7,2,0,1,619,ir_bo_1981_03_29_325_f,46,AN
plants,3,2,4,3,2,0,1,584,ir_bo_1981_03_29_325_f,47,AN
plants,4,2,8,1,2,0,2,956,ir_bo_1981_03_29_325_f,48,AN
plants,3,2,2,3,2,0,1,733,ir_bo_1981_03_29_325_f,49,AN
plants,4,2,6,5,2,0,1,591,ir_bo_1981_03_29_325_f,50,AN
plants,3,2,3,7,2,0,1,702,ir_bo_1981_03_29_325_f,51,AN
plants,4,2,1,6,2,0,1,722,ir_bo_1981_03_29_325_f,52,AN
plants,3,2,8,8,2,0,1,681,ir_bo_1981_03_29_325_f,53,AN
plants,4,2,3,6,2,0,1,519,ir_bo_1981_03_29_325_f,54,AN
plants,3,2,4,4,2,0,1,556,ir_bo_1981_03_29_325_f,55,AN
plants,4,2,2,7,2,0,1,756,ir_bo_1981_03_29_325_f,56,AN
plants,3,2,6,8,2,0,1,593,ir_bo_1981_03_29_325_f,57,AN
plants,4,2,5,2,2,0,1,406,ir_bo_1981_03_29_325_f,58,AN
plants,3,2,6,4,2,0,1,816,ir_bo_1981_03_29_325_f,59,AN
plants,4,2,2,5,2,0,1,652,ir_bo_1981_03_29_325_f,60,AN
plants,3,2,8,2,2,0,1,952,ir_bo_1981_03_29_325_f,61,AN
plants,4,2,3,4,2,0,1,478,ir_bo_1981_03_29_325_f,62,AN
plants,3,2,4,3,2,0,1,533,ir_bo_1981_03_29_325_f,63,AN
plants,4,2,5,7,2,0,1,420,ir_bo_1981_03_29_325_f,64,AN
plants,3,2,6,2,2,0,1,779,ir_bo_1981_03_29_325_f,65,AN
plants,4,2,4,8,2,0,1,648,ir_bo_1981_03_29_325_f,66,AN
plants,3,2,2,3,2,0,1,646,ir_bo_1981_03_29_325_f,67,AN
plants,4,2,4,1,2,0,1,1008,ir_bo_1981_03_29_325_f,68,AN
plants,3,2,7,4,2,0,1,428,ir_bo_1981_03_29_325_f,69,AN
plants,4,2,6,7,2,0,1,782,ir_bo_1981_03_29_325_f,70,AN
plants,3,2,2,1,2,0,1,649,ir_bo_1981_03_29_325_f,71,AN
plants,4,2,7,6,2,0,1,1120,ir_bo_1981_03_29_325_f,72,AN
plants,3,2,2,2,2,0,1,679,ir_bo_1981_03_29_325_f,73,AN
plants,4,2,6,3,2,0,1,592,ir_bo_1981_03_29_325_f,74,AN
plants,3,2,7,1,2,0,1,703,ir_bo_1981_03_29_325_f,75,AN
plants,4,2,5,7,2,0,1,744,ir_bo_1981_03_29_325_f,76,AN
plants,3,2,6,3,2,0,1,771,ir_bo_1981_03_29_325_f,77,AN
plants,4,2,4,8,2,0,1,592,ir_bo_1981_03_29_325_f,78,AN
plants,3,2,1,7,2,0,2,655,ir_bo_1981_03_29_325_f,79,AN
plants,4,2,4,6,2,0,1,728,ir_bo_1981_03_29_325_f,80,AN
mixed,1,1,1,3,0,1,1,1436,ir_bo_1981_03_29_325_f,81,AN
mixed,2,1,3,5,0,0,1,1325,ir_bo_1981_03_29_325_f,82,AN
mixed,3,2,2,7,0,1,1,1041,ir_bo_1981_03_29_325_f,83,AN
mixed,4,2,7,1,0,0,1,950,ir_bo_1981_03_29_325_f,84,AN
mixed,1,1,1,2,0,1,1,1316,ir_bo_1981_03_29_325_f,85,AN
mixed,2,1,2,8,0,0,2,1021,ir_bo_1981_03_29_325_f,86,AN
mixed,3,2,3,1,0,1,1,1428,ir_bo_1981_03_29_325_f,87,AN
mixed,4,2,8,7,0,0,1,733,ir_bo_1981_03_29_325_f,88,AN
mixed,1,1,6,2,0,1,1,934,ir_bo_1981_03_29_325_f,89,AN
mixed,2,1,2,3,0,0,1,836,ir_bo_1981_03_29_325_f,90,AN
mixed,3,2,5,2,0,1,2,960,ir_bo_1981_03_29_325_f,91,AN
mixed,4,2,2,8,0,0,1,1333,ir_bo_1981_03_29_325_f,92,AN
mixed,1,1,3,6,0,1,1,1088,ir_bo_1981_03_29_325_f,93,AN
mixed,2,1,4,2,0,0,1,725,ir_bo_1981_03_29_325_f,94,AN
mixed,3,2,3,5,0,1,1,798,ir_bo_1981_03_29_325_f,95,AN
mixed,4,2,6,7,0,0,1,1570,ir_bo_1981_03_29_325_f,96,AN
mixed,1,1,4,6,0,1,2,681,ir_bo_1981_03_29_325_f,97,AN
mixed,2,1,5,4,0,0,1,1371,ir_bo_1981_03_29_325_f,98,AN
mixed,3,2,3,2,0,1,1,1387,ir_bo_1981_03_29_325_f,99,AN
mixed,4,2,5,7,0,0,1,1061,ir_bo_1981_03_29_325_f,100,AN
mixed,1,1,1,5,0,1,1,986,ir_bo_1981_03_29_325_f,101,AN
mixed,2,1,5,4,0,0,1,1159,ir_bo_1981_03_29_325_f,102,AN
mixed,3,2,3,5,0,1,1,852,ir_bo_1981_03_29_325_f,103,AN
mixed,4,2,7,6,0,0,1,1227,ir_bo_1981_03_29_325_f,104,AN
mixed,1,1,5,7,0,1,1,990,ir_bo_1981_03_29_325_f,105,AN
mixed,2,1,1,8,0,0,1,1200,ir_bo_1981_03_29_325_f,106,AN
mixed,3,2,4,6,0,1,1,1054,ir_bo_1981_03_29_325_f,107,AN
mixed,4,2,8,2,0,0,1,785,ir_bo_1981_03_29_325_f,108,AN
mixed,1,1,7,4,0,1,1,1084,ir_bo_1981_03_29_325_f,109,AN
mixed,2,1,5,2,0,0,1,819,ir_bo_1981_03_29_325_f,110,AN
mixed,3,2,1,3,0,1,2,1455,ir_bo_1981_03_29_325_f,111,AN
mixed,4,2,4,2,0,0,1,1576,ir_bo_1981_03_29_325_f,112,AN
mixed,1,1,8,5,0,1,1,984,ir_bo_1981_03_29_325_f,113,AN
mixed,2,1,5,6,0,0,1,1333,ir_bo_1981_03_29_325_f,114,AN
mixed,3,2,3,4,0,1,1,1374,ir_bo_1981_03_29_325_f,115,AN
mixed,4,2,1,6,0,0,1,715,ir_bo_1981_03_29_325_f,116,AN
mixed,1,1,6,7,0,1,1,953,ir_bo_1981_03_29_325_f,117,AN
mixed,2,1,4,1,0,0,1,863,ir_bo_1981_03_29_325_f,118,AN
mixed,3,2,7,3,0,1,1,1566,ir_bo_1981_03_29_325_f,119,AN
mixed,4,2,1,8,0,0,1,689,ir_bo_1981_03_29_325_f,120,AN
food,1,1,8,5,1,1,1,2033,al_zu_1997_04_02_880_f,1,AN
food,2,1,3,6,1,0,1,989,al_zu_1997_04_02_880_f,2,AN
food,1,1,6,7,1,0,1,770,al_zu_1997_04_02_880_f,3,AN
food,2,1,1,2,1,0,1,499,al_zu_1997_04_02_880_f,4,AN
food,1,1,4,3,1,0,1,1585,al_zu_1997_04_02_880_f,5,AN
food,2,1,2,8,1,0,1,1531,al_zu_1997_04_02_880_f,6,AN
food,1,1,7,7,1,0,1,2147,al_zu_1997_04_02_880_f,7,AN
food,2,1,4,4,1,0,1,1008,al_zu_1997_04_02_880_f,8,AN
food,1,1,6,2,1,0,1,1005,al_zu_1997_04_02_880_f,9,AN
food,2,1,1,3,1,0,1,930,al_zu_1997_04_02_880_f,10,AN
food,1,1,6,7,1,0,1,738,al_zu_1997_04_02_880_f,11,AN
food,2,1,1,2,1,0,1,1360,al_zu_1997_04_02_880_f,12,AN
food,1,1,5,5,1,0,1,1828,al_zu_1997_04_02_880_f,13,AN
food,2,1,2,4,1,0,1,794,al_zu_1997_04_02_880_f,14,AN
food,1,1,4,8,1,0,1,871,al_zu_1997_04_02_880_f,15,AN
food,2,1,6,1,1,0,1,605,al_zu_1997_04_02_880_f,16,AN
food,1,1,8,7,1,0,1,1058,al_zu_1997_04_02_880_f,17,AN
food,2,1,6,1,1,0,1,666,al_zu_1997_04_02_880_f,18,AN
food,1,1,8,6,1,0,1,624,al_zu_1997_04_02_880_f,19,AN
food,2,1,1,2,1,0,1,727,al_zu_1997_04_02_880_f,20,AN
food,1,1,5,4,1,0,1,854,al_zu_1997_04_02_880_f,21,AN
food,2,1,3,6,1,0,1,678,al_zu_1997_04_02_880_f,22,AN
food,1,1,2,2,1,0,1,1296,al_zu_1997_04_02_880_f,23,AN
food,2,1,4,6,1,0,1,704,al_zu_1997_04_02_880_f,24,AN
food,1,1,7,3,1,0,1,811,al_zu_1997_04_02_880_f,25,AN
food,2,1,3,1,1,0,1,669,al_zu_1997_04_02_880_f,26,AN
food,1,1,2,6,1,0,1,1282,al_zu_1997_04_02_880_f,27,AN
food,2,1,4,5,1,0,1,878,al_zu_1997_04_02_880_f,28,AN
food,1,1,1,2,1,0,1,685,al_zu_1997_04_02_880_f,29,AN
food,2,1,8,4,1,0,1,814,al_zu_1997_04_02_880_f,30,AN
food,1,1,3,5,1,0,1,1493,al_zu_1997_04_02_880_f,31,AN
food,2,1,7,4,1,0,1,554,al_zu_1997_04_02_880_f,32,AN
food,1,1,8,6,1,0,2,993,al_zu_1997_04_02_880_f,33,AN
food,2,1,1,8,1,0,1,1079,al_zu_1997_04_02_880_f,34,AN
food,1,1,2,1,1,0,1,1001,al_zu_1997_04_02_880_f,35,AN
food,2,1,8,2,1,0,1,854,al_zu_1997_04_02_880_f,36,AN
food,1,1,7,7,1,0,2,1014,al_zu_1997_04_02_880_f,37,AN
food,2,1,3,1,1,0,1,1049,al_zu_1997_04_02_880_f,38,AN
food,1,1,5,6,1,0,1,935,al_zu_1997_04_02_880_f,39,AN
food,2,1,3,3,1,0,1,719,al_zu_1997_04_02_880_f,40,AN
plants,3,2,1,6,2,1,1,2482,al_zu_1997_04_02_880_f,41,AN
plants,4,2,6,1,2,0,1,787,al_zu_1997_04_02_880_f,42,AN
plants,3,2,4,2,2,0,1,941,al_zu_1997_04_02_880_f,43,AN
plants,4,2,6,7,2,0,1,868,al_zu_1997_04_02_880_f,44,AN
plants,3,2,4,2,2,0,1,902,al_zu_1997_04_02_880_f,45,AN
plants,4,2,5,6,2,0,1,877,al_zu_1997_04_02_880_f,46,AN
plants,3,2,7,2,2,0,1,659,al_zu_1997_04_02_880_f,47,AN
plants,4,2,3,3,2,0,1,955,al_zu_1997_04_02_880_f,48,AN
plants,3,2,1,8,2,0,1,551,al_zu_1997_04_02_880_f,49,AN
plants,4,2,8,2,2,0,1,462,al_zu_1997_04_02_880_f,50,AN
plants,3,2,7,4,2,0,2,544,al_zu_1997_04_02_880_f,51,AN
plants,4,2,2,7,2,0,2,2763,al_zu_1997_04_02_880_f,52,AN
plants,3,2,7,2,2,0,1,1741,al_zu_1997_04_02_880_f,53,AN
plants,4,2,1,3,2,0,1,868,al_zu_1997_04_02_880_f,54,AN
plants,3,2,5,4,2,0,1,717,al_zu_1997_04_02_880_f,55,AN
plants,4,2,1,8,2,0,1,748,al_zu_1997_04_02_880_f,56,AN
plants,3,2,5,1,2,0,1,922,al_zu_1997_04_02_880_f,57,AN
plants,4,2,6,5,2,0,1,2133,al_zu_1997_04_02_880_f,58,AN
plants,3,2,4,8,2,0,1,1241,al_zu_1997_04_02_880_f,59,AN
plants,4,2,8,1,2,0,1,750,al_zu_1997_04_02_880_f,60,AN
plants,3,2,2,4,2,0,1,2660,al_zu_1997_04_02_880_f,61,AN
plants,4,2,8,1,2,0,1,644,al_zu_1997_04_02_880_f,62,AN
plants,3,2,1,5,2,0,1,728,al_zu_1997_04_02_880_f,63,AN
plants,4,2,5,7,2,0,1,1366,al_zu_1997_04_02_880_f,64,AN
plants,3,2,2,4,2,0,1,712,al_zu_1997_04_02_880_f,65,AN
plants,4,2,6,5,2,0,1,2468,al_zu_1997_04_02_880_f,66,AN
plants,3,2,3,2,2,0,1,647,al_zu_1997_04_02_880_f,67,AN
plants,4,2,4,1,2,0,1,656,al_zu_1997_04_02_880_f,68,AN
plants,3,2,6,5,2,0,1,626,al_zu_1997_04_02_880_f,69,AN
plants,4,2,4,2,2,0,1,716,al_zu_1997_04_02_880_f,70,AN
plants,3,2,7,1,2,0,1,651,al_zu_1997_04_02_880_f,71,AN
plants,4,2,5,2,2,0,1,490,al_zu_1997_04_02_880_f,72,AN
plants,3,2,6,7,2,0,1,599,al_zu_1997_04_02_880_f,73,AN
plants,4,2,1,6,2,0,1,741,al_zu_1997_04_02_880_f,74,AN
plants,3,2,3,3,2,0,1,720,al_zu_1997_04_02_880_f,75,AN
plants,4,2,6,1,2,0,1,1379,al_zu_1997_04_02_880_f,76,AN
plants,3,2,1,4,2,0,1,2098,al_zu_1997_04_02_880_f,77,AN
plants,4,2,2,7,2,0,1,1326,al_zu_1997_04_02_880_f,78,AN
plants,3,2,5,1,2,0,1,875,al_zu_1997_04_02_880_f,79,AN
plants,4,2,2,3,2,0,1,619,al_zu_1997_04_02_880_f,80,AN
mixed,1,1,7,1,0,1,1,2855,al_zu_1997_04_02_880_f,81,AN
mixed,2,1,2,5,0,0,1,1278,al_zu_1997_04_02_880_f,82,AN
mixed,3,2,3,6,0,1,2,1059,al_zu_1997_04_02_880_f,83,AN
mixed,4,2,4,5,0,0,1,1278,al_zu_1997_04_02_880_f,84,AN
mixed,1,1,1,8,0,1,1,1815,al_zu_1997_04_02_880_f,85,AN
mixed,2,1,2,5,0,0,1,1400,al_zu_1997_04_02_880_f,86,AN
mixed,3,2,4,6,0,1,1,2433,al_zu_1997_04_02_880_f,87,AN
mixed,4,2,2,8,0,0,1,2447,al_zu_1997_04_02_880_f,88,AN
mixed,1,1,7,6,0,1,2,1945,al_zu_1997_04_02_880_f,89,AN
mixed,2,1,8,1,0,0,1,2512,al_zu_1997_04_02_880_f,90,AN
mixed,3,2,7,8,0,1,1,1380,al_zu_1997_04_02_880_f,91,AN
mixed,4,2,2,6,0,0,1,2903,al_zu_1997_04_02_880_f,92,AN
mixed,1,1,7,3,0,1,2,1746,al_zu_1997_04_02_880_f,93,AN
mixed,2,1,2,1,0,0,1,980,al_zu_1997_04_02_880_f,94,AN
mixed,3,2,1,8,0,1,1,1146,al_zu_1997_04_02_880_f,95,AN
mixed,4,2,6,1,0,0,1,1245,al_zu_1997_04_02_880_f,96,AN
mixed,1,1,1,4,0,1,1,1136,al_zu_1997_04_02_880_f,97,AN
mixed,2,1,3,6,0,0,2,771,al_zu_1997_04_02_880_f,98,AN
mixed,3,2,8,7,0,1,1,1203,al_zu_1997_04_02_880_f,99,AN
mixed,4,2,2,5,0,0,1,657,al_zu_1997_04_02_880_f,100,AN
mixed,1,1,6,6,0,1,1,1458,al_zu_1997_04_02_880_f,101,AN
mixed,2,1,5,3,0,0,1,1199,al_zu_1997_04_02_880_f,102,AN
mixed,3,2,4,4,0,1,1,1260,al_zu_1997_04_02_880_f,103,AN
mixed,4,2,5,7,0,0,1,663,al_zu_1997_04_02_880_f,104,AN
mixed,1,1,7,5,0,1,1,1449,al_zu_1997_04_02_880_f,105,AN
mixed,2,1,1,3,0,0,1,1167,al_zu_1997_04_02_880_f,106,AN
mixed,3,2,6,1,0,1,1,1275,al_zu_1997_04_02_880_f,107,AN
mixed,4,2,3,7,0,0,1,559,al_zu_1997_04_02_880_f,108,AN
mixed,1,1,4,3,0,1,1,1716,al_zu_1997_04_02_880_f,109,AN
mixed,2,1,5,2,0,0,1,609,al_zu_1997_04_02_880_f,110,AN
mixed,3,2,6,1,0,1,1,1949,al_zu_1997_04_02_880_f,111,AN
mixed,4,2,7,5,0,0,1,476,al_zu_1997_04_02_880_f,112,AN
mixed,1,1,5,2,0,1,1,1202,al_zu_1997_04_02_880_f,113,AN
mixed,2,1,7,1,0,0,2,433,al_zu_1997_04_02_880_f,114,AN
mixed,3,2,4,4,0,1,1,2304,al_zu_1997_04_02_880_f,115,AN
mixed,4,2,2,8,0,0,1,627,al_zu_1997_04_02_880_f,116,AN
mixed,1,1,4,2,0,1,3,5000,al_zu_1997_04_02_880_f,117,AN
mixed,2,1,5,1,0,0,1,1300,al_zu_1997_04_02_880_f,118,AN
mixed,3,2,4,8,0,1,1,1466,al_zu_1997_04_02_880_f,119,AN
mixed,4,2,3,3,0,0,1,817,al_zu_1997_04_02_880_f,120,AN
food,1,1,4,4,1,1,1,2014,fe_sa_2002_05_09_08_f,1,AN
food,2,1,7,2,1,0,1,1427,fe_sa_2002_05_09_08_f,2,AN
food,1,1,6,6,1,0,1,1688,fe_sa_2002_05_09_08_f,3,AN
food,2,1,1,7,1,0,1,1061,fe_sa_2002_05_09_08_f,4,AN
food,1,1,6,2,1,0,1,1269,fe_sa_2002_05_09_08_f,5,AN
food,2,1,5,5,1,0,1,915,fe_sa_2002_05_09_08_f,6,AN
food,1,1,4,4,1,0,1,600,fe_sa_2002_05_09_08_f,7,AN
food,2,1,7,1,1,0,1,1038,fe_sa_2002_05_09_08_f,8,AN
food,1,1,8,6,1,0,1,1392,fe_sa_2002_05_09_08_f,9,AN
food,2,1,5,7,1,0,1,1240,fe_sa_2002_05_09_08_f,10,AN
food,1,1,4,2,1,0,1,1609,fe_sa_2002_05_09_08_f,11,AN
food,2,1,3,1,1,0,1,779,fe_sa_2002_05_09_08_f,12,AN
food,1,1,5,6,1,0,1,1759,fe_sa_2002_05_09_08_f,13,AN
food,2,1,4,4,1,0,1,2369,fe_sa_2002_05_09_08_f,14,AN
food,1,1,5,7,1,0,1,700,fe_sa_2002_05_09_08_f,15,AN
food,2,1,6,2,1,0,1,951,fe_sa_2002_05_09_08_f,16,AN
food,1,1,5,7,1,0,1,522,fe_sa_2002_05_09_08_f,17,AN
food,2,1,6,6,1,0,1,523,fe_sa_2002_05_09_08_f,18,AN
food,1,1,7,3,1,0,1,666,fe_sa_2002_05_09_08_f,19,AN
food,2,1,3,1,1,0,1,689,fe_sa_2002_05_09_08_f,20,AN
food,1,1,8,6,1,0,1,1075,fe_sa_2002_05_09_08_f,21,AN
food,2,1,6,8,1,0,1,3377,fe_sa_2002_05_09_08_f,22,AN
food,1,1,4,3,1,0,1,682,fe_sa_2002_05_09_08_f,23,AN
food,2,1,6,8,1,0,1,565,fe_sa_2002_05_09_08_f,24,AN
food,1,1,1,7,1,0,1,664,fe_sa_2002_05_09_08_f,25,AN
food,2,1,2,2,1,0,1,984,fe_sa_2002_05_09_08_f,26,AN
food,1,1,5,6,1,0,1,735,fe_sa_2002_05_09_08_f,27,AN
food,2,1,3,4,1,0,1,644,fe_sa_2002_05_09_08_f,28,AN
food,1,1,5,1,1,0,1,661,fe_sa_2002_05_09_08_f,29,AN
food,2,1,1,7,1,0,1,1185,fe_sa_2002_05_09_08_f,30,AN
food,1,1,3,6,1,0,1,609,fe_sa_2002_05_09_08_f,31,AN
food,2,1,5,8,1,0,1,643,fe_sa_2002_05_09_08_f,32,AN
food,1,1,2,1,1,0,1,689,fe_sa_2002_05_09_08_f,33,AN
food,2,1,5,6,1,0,1,498,fe_sa_2002_05_09_08_f,34,AN
food,1,1,7,2,1,0,1,773,fe_sa_2002_05_09_08_f,35,AN
food,2,1,1,7,1,0,1,1515,fe_sa_2002_05_09_08_f,36,AN
food,1,1,6,4,1,0,1,1007,fe_sa_2002_05_09_08_f,37,AN
food,2,1,2,2,1,0,1,661,fe_sa_2002_05_09_08_f,38,AN
food,1,1,8,5,1,0,1,1142,fe_sa_2002_05_09_08_f,39,AN
food,2,1,1,6,1,0,1,567,fe_sa_2002_05_09_08_f,40,AN
plants,3,2,7,8,2,1,3,5000,fe_sa_2002_05_09_08_f,41,AN
plants,4,2,2,5,2,0,1,1441,fe_sa_2002_05_09_08_f,42,AN
plants,3,2,4,2,2,0,1,1176,fe_sa_2002_05_09_08_f,43,AN
plants,4,2,6,7,2,0,2,1506,fe_sa_2002_05_09_08_f,44,AN
plants,3,2,2,2,2,0,1,1192,fe_sa_2002_05_09_08_f,45,AN
plants,4,2,3,7,2,0,1,1214,fe_sa_2002_05_09_08_f,46,AN
plants,3,2,1,4,2,0,1,2344,fe_sa_2002_05_09_08_f,47,AN
plants,4,2,5,7,2,0,1,1157,fe_sa_2002_05_09_08_f,48,AN
plants,3,2,1,8,2,0,1,833,fe_sa_2002_05_09_08_f,49,AN
plants,4,2,3,7,2,0,1,730,fe_sa_2002_05_09_08_f,50,AN
plants,3,2,5,8,2,0,1,592,fe_sa_2002_05_09_08_f,51,AN
plants,4,2,1,2,2,0,1,566,fe_sa_2002_05_09_08_f,52,AN
plants,3,2,3,7,2,0,1,1787,fe_sa_2002_05_09_08_f,53,AN
plants,4,2,4,3,2,0,1,626,fe_sa_2002_05_09_08_f,54,AN
plants,3,2,5,5,2,0,1,593,fe_sa_2002_05_09_08_f,55,AN
plants,4,2,7,7,2,0,1,916,fe_sa_2002_05_09_08_f,56,AN
plants,3,2,1,5,2,0,1,657,fe_sa_2002_05_09_08_f,57,AN
plants,4,2,3,1,2,0,1,1254,fe_sa_2002_05_09_08_f,58,AN
plants,3,2,6,2,2,0,1,749,fe_sa_2002_05_09_08_f,59,AN
plants,4,2,4,5,2,0,1,665,fe_sa_2002_05_09_08_f,60,AN
plants,3,2,5,2,2,0,2,739,fe_sa_2002_05_09_08_f,61,AN
plants,4,2,2,1,2,0,1,3655,fe_sa_2002_05_09_08_f,62,AN
plants,3,2,5,3,2,0,1,2296,fe_sa_2002_05_09_08_f,63,AN
plants,4,2,3,8,2,0,1,819,fe_sa_2002_05_09_08_f,64,AN
plants,3,2,6,7,2,0,1,1013,fe_sa_2002_05_09_08_f,65,AN
plants,4,2,1,8,2,0,1,526,fe_sa_2002_05_09_08_f,66,AN
plants,3,2,2,7,2,0,1,414,fe_sa_2002_05_09_08_f,67,AN
plants,4,2,6,8,2,0,1,497,fe_sa_2002_05_09_08_f,68,AN
plants,3,2,2,6,2,0,1,563,fe_sa_2002_05_09_08_f,69,AN
plants,4,2,4,1,2,0,2,463,fe_sa_2002_05_09_08_f,70,AN
