V1,V2,V3,V4,V5,V6,V7,V8,V9,V10,V11,V12,V13,V14,subj_name,block,card_shown,correct_card,card_chosen_if_perseveration,trial_in_a_sequence,name_of_task,card_shape,card_number,card_color,rt,is_correct,chosen_card,is_error,is_perseverative_error,is_non_perseverative_error
40,4,0,1,shape,star,2,yellow,6653,1,4,0,0,0,wcst_pazienti.2021-01-13-1503.data.e5a13894-5283-4d43-bb0a-43b91a22416d.txt,1,40,4,0,1,shape,star,2,yellow,6653,1,4,0,0,0
35,4,0,2,shape,star,1,red,3080,2,1,1,0,1,wcst_pazienti.2021-01-13-1503.data.e5a13894-5283-4d43-bb0a-43b91a22416d.txt,1,35,4,0,2,shape,star,1,red,3080,2,1,1,0,1
52,2,0,3,shape,triangle,1,yellow,3322,1,2,0,0,0,wcst_pazienti.2021-01-13-1503.data.e5a13894-5283-4d43-bb0a-43b91a22416d.txt,1,52,2,0,3,shape,triangle,1,yellow,3322,1,2,0,0,0
34,4,0,4,shape,star,1,green,1628,1,4,0,0,0,wcst_pazienti.2021-01-13-1503.data.e5a13894-5283-4d43-bb0a-43b91a22416d.txt,1,34,4,0,4,shape,star,1,green,1628,1,4,0,0,0
33,4,0,5,shape,star,1,blue,1468,1,4,0,0,0,wcst_pazienti.2021-01-13-1503.data.e5a13894-5283-4d43-bb0a-43b91a22416d.txt,1,33,4,0,5,shape,star,1,blue,1468,1,4,0,0,0
1,1,0,6,shape,circle,1,blue,2350,1,1,0,0,0,wcst_pazienti.2021-01-13-1503.data.e5a13894-5283-4d43-bb0a-43b91a22416d.txt,1,1,1,0,6,shape,circle,1,blue,2350,1,1,0,0,0
39,4,0,7,shape,star,2,red,1732,1,4,0,0,0,wcst_pazienti.2021-01-13-1503.data.e5a13894-5283-4d43-bb0a-43b91a22416d.txt,1,39,4,0,7,shape,star,2,red,1732,1,4,0,0,0
7,1,0,8,shape,circle,2,red,1566,1,1,0,0,0,wcst_pazienti.2021-01-13-1503.data.e5a13894-5283-4d43-bb0a-43b91a22416d.txt,1,7,1,0,8,shape,circle,2,red,1566,1,1,0,0,0
56,2,0,9,shape,triangle,2,yellow,1133,1,2,0,0,0,wcst_pazienti.2021-01-13-1503.data.e5a13894-5283-4d43-bb0a-43b91a22416d.txt,1,56,2,0,9,shape,triangle,2,yellow,1133,1,2,0,0,0
14,1,0,10,shape,circle,4,green,2004,1,1,0,0,0,wcst_pazienti.2021-01-13-1503.data.e5a13894-5283-4d43-bb0a-43b91a22416d.txt,1,14,1,0,10,shape,circle,4,green,2004,1,1,0,0,0
62,4,2,1,number,triangle,4,green,1165,2,2,1,1,0,wcst_pazienti.2021-01-13-1503.data.e5a13894-5283-4d43-bb0a-43b91a22416d.txt,2,62,4,2,1,number,triangle,4,green,1165,2,2,1,1,0
58,3,2,2,number,triangle,3,green,3853,1,3,0,0,0,wcst_pazienti.2021-01-13-1503.data.e5a13894-5283-4d43-bb0a-43b91a22416d.txt,2,58,3,2,2,number,triangle,3,green,3853,1,3,0,0,0
26,3,3,3,number,cross,3,green,1263,1,3,0,0,0,wcst_pazienti.2021-01-13-1503.data.e5a13894-5283-4d43-bb0a-43b91a22416d.txt,2,26,3,3,3,number,cross,3,green,1263,1,3,0,0,0
30,4,3,4,number,cross,4,green,2193,1,4,0,0,0,wcst_pazienti.2021-01-13-1503.data.e5a13894-5283-4d43-bb0a-43b91a22416d.txt,2,30,4,3,4,number,cross,4,green,2193,1,4,0,0,0
50,1,2,5,number,triangle,1,green,3947,1,1,0,0,0,wcst_pazienti.2021-01-13-1503.data.e5a13894-5283-4d43-bb0a-43b91a22416d.txt,2,50,1,2,5,number,triangle,1,green,3947,1,1,0,0,0
17,1,3,6,number,cross,1,blue,802,1,1,0,0,0,wcst_pazienti.2021-01-13-1503.data.e5a13894-5283-4d43-bb0a-43b91a22416d.txt,2,17,1,3,6,number,cross,1,blue,802,1,1,0,0,0
11,3,1,7,number,circle,3,red,3741,1,3,0,0,0,wcst_pazienti.2021-01-13-1503.data.e5a13894-5283-4d43-bb0a-43b91a22416d.txt,2,11,3,1,7,number,circle,3,red,3741,1,3,0,0,0
53,2,2,8,number,triangle,2,blue,1118,1,2,0,0,0,wcst_pazienti.2021-01-13-1503.data.e5a13894-5283-4d43-bb0a-43b91a22416d.txt,2,53,2,2,8,number,triangle,2,blue,1118,1,2,0,0,0
16,4,1,9,number,circle,4,yellow,1350,1,4,0,0,0,wcst_pazienti.2021-01-13-1503.data.e5a13894-5283-4d43-bb0a-43b91a22416d.txt,2,16,4,1,9,number,circle,4,yellow,1350,1,4,0,0,0
37,2,4,10,number,star,2,blue,1064,1,2,0,0,0,wcst_pazienti.2021-01-13-1503.data.e5a13894-5283-4d43-bb0a-43b91a22416d.txt,2,37,2,4,10,number,star,2,blue,1064,1,2,0,0,0
46,2,4,1,color,star,4,green,1717,2,4,1,1,0,wcst_pazienti.2021-01-13-1503.data.e5a13894-5283-4d43-bb0a-43b91a22416d.txt,3,46,2,4,1,color,star,4,green,1717,2,4,1,1,0
45,3,4,2,color,star,4,blue,4635,1,3,0,0,0,wcst_pazienti.2021-01-13-1503.data.e5a13894-5283-4d43-bb0a-43b91a22416d.txt,3,45,3,4,2,color,star,4,blue,4635,1,3,0,0,0
27,1,3,3,color,cross,3,red,1403,1,1,0,0,0,wcst_pazienti.2021-01-13-1503.data.e5a13894-5283-4d43-bb0a-43b91a22416d.txt,3,27,1,3,3,color,cross,3,red,1403,1,1,0,0,0
15,1,4,4,color,circle,4,red,968,1,1,0,0,0,wcst_pazienti.2021-01-13-1503.data.e5a13894-5283-4d43-bb0a-43b91a22416d.txt,3,15,1,4,4,color,circle,4,red,968,1,1,0,0,0
19,1,1,5,color,cross,1,red,1491,1,1,0,0,0,wcst_pazienti.2021-01-13-1503.data.e5a13894-5283-4d43-bb0a-43b91a22416d.txt,3,19,1,1,5,color,cross,1,red,1491,1,1,0,0,0
57,3,3,6,color,triangle,3,blue,2752,1,3,0,0,0,wcst_pazienti.2021-01-13-1503.data.e5a13894-5283-4d43-bb0a-43b91a22416d.txt,3,57,3,3,6,color,triangle,3,blue,2752,1,3,0,0,0
22,2,2,7,color,cross,2,green,958,1,2,0,0,0,wcst_pazienti.2021-01-13-1503.data.e5a13894-5283-4d43-bb0a-43b91a22416d.txt,3,22,2,2,7,color,cross,2,green,958,1,2,0,0,0
49,3,1,8,color,triangle,1,blue,1540,1,3,0,0,0,wcst_pazienti.2021-01-13-1503.data.e5a13894-5283-4d43-bb0a-43b91a22416d.txt,3,49,3,1,8,color,triangle,1,blue,1540,1,3,0,0,0
51,1,1,9,color,triangle,1,red,1370,1,1,0,0,0,wcst_pazienti.2021-01-13-1503.data.e5a13894-5283-4d43-bb0a-43b91a22416d.txt,3,51,1,1,9,color,triangle,1,red,1370,1,1,0,0,0
13,3,4,10,color,circle,4,blue,1534,1,3,0,0,0,wcst_pazienti.2021-01-13-1503.data.e5a13894-5283-4d43-bb0a-43b91a22416d.txt,3,13,3,4,10,color,circle,4,blue,1534,1,3,0,0,0
32,3,4,1,shape,cross,4,yellow,1433,2,4,1,1,0,wcst_pazienti.2021-01-13-1503.data.e5a13894-5283-4d43-bb0a-43b91a22416d.txt,4,32,3,4,1,shape,cross,4,yellow,1433,2,4,1,1,0
28,3,4,2,shape,cross,3,yellow,6687,1,3,0,0,0,wcst_pazienti.2021-01-13-1503.data.e5a13894-5283-4d43-bb0a-43b91a22416d.txt,4,28,3,4,2,shape,cross,3,yellow,6687,1,3,0,0,0
23,3,1,3,shape,cross,2,red,1270,1,3,0,0,0,wcst_pazienti.2021-01-13-1503.data.e5a13894-5283-4d43-bb0a-43b91a22416d.txt,4,23,3,1,3,shape,cross,2,red,1270,1,3,0,0,0
9,1,3,4,shape,circle,3,blue,1741,1,1,0,0,0,wcst_pazienti.2021-01-13-1503.data.e5a13894-5283-4d43-bb0a-43b91a22416d.txt,4,9,1,3,4,shape,circle,3,blue,1741,1,1,0,0,0
64,2,4,5,shape,triangle,4,yellow,2453,1,2,0,0,0,wcst_pazienti.2021-01-13-1503.data.e5a13894-5283-4d43-bb0a-43b91a22416d.txt,4,64,2,4,5,shape,triangle,4,yellow,2453,1,2,0,0,0
36,4,4,6,shape,star,1,yellow,1860,1,4,0,0,0,wcst_pazienti.2021-01-13-1503.data.e5a13894-5283-4d43-bb0a-43b91a22416d.txt,4,36,4,4,6,shape,star,1,yellow,1860,1,4,0,0,0
63,2,1,7,shape,triangle,4,red,2141,1,2,0,0,0,wcst_pazienti.2021-01-13-1503.data.e5a13894-5283-4d43-bb0a-43b91a22416d.txt,4,63,2,1,7,shape,triangle,4,red,2141,1,2,0,0,0
59,2,1,8,shape,triangle,3,red,3621,1,2,0,0,0,wcst_pazienti.2021-01-13-1503.data.e5a13894-5283-4d43-bb0a-43b91a22416d.txt,4,59,2,1,8,shape,triangle,3,red,3621,1,2,0,0,0
20,3,4,9,shape,cross,1,yellow,2368,1,3,0,0,0,wcst_pazienti.2021-01-13-1503.data.e5a13894-5283-4d43-bb0a-43b91a22416d.txt,4,20,3,4,9,shape,cross,1,yellow,2368,1,3,0,0,0
2,1,2,10,shape,circle,1,green,1525,1,1,0,0,0,wcst_pazienti.2021-01-13-1503.data.e5a13894-5283-4d43-bb0a-43b91a22416d.txt,4,2,1,2,10,shape,circle,1,green,1525,1,1,0,0,0
24,2,3,1,number,cross,2,yellow,1883,2,3,1,1,0,wcst_pazienti.2021-01-13-1503.data.e5a13894-5283-4d43-bb0a-43b91a22416d.txt,5,24,2,3,1,number,cross,2,yellow,1883,2,3,1,1,0
5,2,1,2,number,circle,2,blue,1109,1,2,0,0,0,wcst_pazienti.2021-01-13-1503.data.e5a13894-5283-4d43-bb0a-43b91a22416d.txt,5,5,2,1,2,number,circle,2,blue,1109,1,2,0,0,0
42,3,4,3,number,star,3,green,1255,1,3,0,0,0,wcst_pazienti.2021-01-13-1503.data.e5a13894-5283-4d43-bb0a-43b91a22416d.txt,5,42,3,4,3,number,star,3,green,1255,1,3,0,0,0
10,3,1,4,number,circle,3,green,1146,1,3,0,0,0,wcst_pazienti.2021-01-13-1503.data.e5a13894-5283-4d43-bb0a-43b91a22416d.txt,5,10,3,1,4,number,circle,3,green,1146,1,3,0,0,0
29,4,3,5,number,cross,4,blue,2353,1,4,0,0,0,wcst_pazienti.2021-01-13-1503.data.e5a13894-5283-4d43-bb0a-43b91a22416d.txt,5,29,4,3,5,number,cross,4,blue,2353,1,4,0,0,0
47,4,4,6,number,star,4,red,927,1,4,0,0,0,wcst_pazienti.2021-01-13-1503.data.e5a13894-5283-4d43-bb0a-43b91a22416d.txt,5,47,4,4,6,number,star,4,red,927,1,4,0,0,0
31,4,3,7,number,cross,4,red,718,1,4,0,0,0,wcst_pazienti.2021-01-13-1503.data.e5a13894-5283-4d43-bb0a-43b91a22416d.txt,5,31,4,3,7,number,cross,4,red,718,1,4,0,0,0
38,2,4,8,number,star,2,green,1209,1,2,0,0,0,wcst_pazienti.2021-01-13-1503.data.e5a13894-5283-4d43-bb0a-43b91a22416d.txt,5,38,2,4,8,number,star,2,green,1209,1,2,0,0,0
21,2,3,9,number,cross,2,blue,1754,1,2,0,0,0,wcst_pazienti.2021-01-13-1503.data.e5a13894-5283-4d43-bb0a-43b91a22416d.txt,5,21,2,3,9,number,cross,2,blue,1754,1,2,0,0,0
6,2,1,10,number,circle,2,green,1570,1,2,0,0,0,wcst_pazienti.2021-01-13-1503.data.e5a13894-5283-4d43-bb0a-43b91a22416d.txt,5,6,2,1,10,number,circle,2,green,1570,1,2,0,0,0
12,4,3,1,color,circle,3,yellow,1667,2,3,1,1,0,wcst_pazienti.2021-01-13-1503.data.e5a13894-5283-4d43-bb0a-43b91a22416d.txt,6,12,4,3,1,color,circle,3,yellow,1667,2,3,1,1,0
61,3,4,2,color,triangle,4,blue,1550,2,2,1,0,1,wcst_pazienti.2021-01-13-1503.data.e5a13894-5283-4d43-bb0a-43b91a22416d.txt,6,61,3,4,2,color,triangle,4,blue,1550,2,2,1,0,1
55,1,2,3,color,triangle,2,red,1694,2,2,1,1,0,wcst_pazienti.2021-01-13-1503.data.e5a13894-5283-4d43-bb0a-43b91a22416d.txt,6,55,1,2,3,color,triangle,2,red,1694,2,2,1,1,0
41,3,3,4,color,star,3,blue,8349,2,4,1,0,1,wcst_pazienti.2021-01-13-1503.data.e5a13894-5283-4d43-bb0a-43b91a22416d.txt,6,41,3,3,4,color,star,3,blue,8349,2,4,1,0,1
44,4,3,5,color,star,3,yellow,1172,1,4,0,0,0,wcst_pazienti.2021-01-13-1503.data.e5a13894-5283-4d43-bb0a-43b91a22416d.txt,6,44,4,3,5,color,star,3,yellow,1172,1,4,0,0,0
4,4,1,6,color,circle,1,yellow,1243,1,4,0,0,0,wcst_pazienti.2021-01-13-1503.data.e5a13894-5283-4d43-bb0a-43b91a22416d.txt,6,4,4,1,6,color,circle,1,yellow,1243,1,4,0,0,0
60,4,3,7,color,triangle,3,yellow,1011,1,4,0,0,0,wcst_pazienti.2021-01-13-1503.data.e5a13894-5283-4d43-bb0a-43b91a22416d.txt,6,60,4,3,7,color,triangle,3,yellow,1011,1,4,0,0,0
43,1,3,8,color,star,3,red,1317,1,1,0,0,0,wcst_pazienti.2021-01-13-1503.data.e5a13894-5283-4d43-bb0a-43b91a22416d.txt,6,43,1,3,8,color,star,3,red,1317,1,1,0,0,0
8,4,2,9,color,circle,2,yellow,1475,1,4,0,0,0,wcst_pazienti.2021-01-13-1503.data.e5a13894-5283-4d43-bb0a-43b91a22416d.txt,6,8,4,2,9,color,circle,2,yellow,1475,1,4,0,0,0
18,2,1,10,color,cross,1,green,1241,1,2,0,0,0,wcst_pazienti.2021-01-13-1503.data.e5a13894-5283-4d43-bb0a-43b91a22416d.txt,6,18,2,1,10,color,cross,1,green,1241,1,2,0,0,0
40,4,0,1,shape,star,2,yellow,1523,2,2,1,0,1,wcst_pazienti.2021-01-13-1620.data.cf1e5820-2311-4c41-82d1-cc09cb3c0f75.txt,1,40,4,0,1,shape,star,2,yellow,1523,2,2,1,0,1
35,4,0,2,shape,star,1,red,1911,2,1,1,0,1,wcst_pazienti.2021-01-13-1620.data.cf1e5820-2311-4c41-82d1-cc09cb3c0f75.txt,1,35,4,0,2,shape,star,1,red,1911,2,1,1,0,1
52,2,0,3,shape,triangle,1,yellow,1681,2,4,1,0,1,wcst_pazienti.2021-01-13-1620.data.cf1e5820-2311-4c41-82d1-cc09cb3c0f75.txt,1,52,2,0,3,shape,triangle,1,yellow,1681,2,4,1,0,1
34,4,0,4,shape,star,1,green,1267,2,2,1,0,1,wcst_pazienti.2021-01-13-1620.data.cf1e5820-2311-4c41-82d1-cc09cb3c0f75.txt,1,34,4,0,4,shape,star,1,green,1267,2,2,1,0,1
33,4,0,5,shape,star,1,blue,1824,1,4,0,0,0,wcst_pazienti.2021-01-13-1620.data.cf1e5820-2311-4c41-82d1-cc09cb3c0f75.txt,1,33,4,0,5,shape,star,1,blue,1824,1,4,0,0,0
1,1,0,6,shape,circle,1,blue,1386,1,1,0,0,0,wcst_pazienti.2021-01-13-1620.data.cf1e5820-2311-4c41-82d1-cc09cb3c0f75.txt,1,1,1,0,6,shape,circle,1,blue,1386,1,1,0,0,0
39,4,0,7,shape,star,2,red,1925,1,4,0,0,0,wcst_pazienti.2021-01-13-1620.data.cf1e5820-2311-4c41-82d1-cc09cb3c0f75.txt,1,39,4,0,7,shape,star,2,red,1925,1,4,0,0,0
7,1,0,8,shape,circle,2,red,1435,1,1,0,0,0,wcst_pazienti.2021-01-13-1620.data.cf1e5820-2311-4c41-82d1-cc09cb3c0f75.txt,1,7,1,0,8,shape,circle,2,red,1435,1,1,0,0,0
56,2,0,9,shape,triangle,2,yellow,1681,1,2,0,0,0,wcst_pazienti.2021-01-13-1620.data.cf1e5820-2311-4c41-82d1-cc09cb3c0f75.txt,1,56,2,0,9,shape,triangle,2,yellow,1681,1,2,0,0,0
14,1,0,10,shape,circle,4,green,1481,1,1,0,0,0,wcst_pazienti.2021-01-13-1620.data.cf1e5820-2311-4c41-82d1-cc09cb3c0f75.txt,1,14,1,0,10,shape,circle,4,green,1481,1,1,0,0,0
62,4,2,1,number,triangle,4,green,1151,2,2,1,1,0,wcst_pazienti.2021-01-13-1620.data.cf1e5820-2311-4c41-82d1-cc09cb3c0f75.txt,2,62,4,2,1,number,triangle,4,green,1151,2,2,1,1,0
58,3,2,2,number,triangle,3,green,2111,2,2,1,1,0,wcst_pazienti.2021-01-13-1620.data.cf1e5820-2311-4c41-82d1-cc09cb3c0f75.txt,2,58,3,2,2,number,triangle,3,green,2111,2,2,1,1,0
26,3,3,3,number,cross,3,green,1320,1,3,0,0,0,wcst_pazienti.2021-01-13-1620.data.cf1e5820-2311-4c41-82d1-cc09cb3c0f75.txt,2,26,3,3,3,number,cross,3,green,1320,1,3,0,0,0
30,4,3,4,number,cross,4,green,1692,1,4,0,0,0,wcst_pazienti.2021-01-13-1620.data.cf1e5820-2311-4c41-82d1-cc09cb3c0f75.txt,2,30,4,3,4,number,cross,4,green,1692,1,4,0,0,0
50,1,2,5,number,triangle,1,green,1952,1,1,0,0,0,wcst_pazienti.2021-01-13-1620.data.cf1e5820-2311-4c41-82d1-cc09cb3c0f75.txt,2,50,1,2,5,number,triangle,1,green,1952,1,1,0,0,0
17,1,3,6,number,cross,1,blue,1105,1,1,0,0,0,wcst_pazienti.2021-01-13-1620.data.cf1e5820-2311-4c41-82d1-cc09cb3c0f75.txt,2,17,1,3,6,number,cross,1,blue,1105,1,1,0,0,0
11,3,1,7,number,circle,3,red,1655,1,3,0,0,0,wcst_pazienti.2021-01-13-1620.data.cf1e5820-2311-4c41-82d1-cc09cb3c0f75.txt,2,11,3,1,7,number,circle,3,red,1655,1,3,0,0,0
53,2,2,8,number,triangle,2,blue,1562,1,2,0,0,0,wcst_pazienti.2021-01-13-1620.data.cf1e5820-2311-4c41-82d1-cc09cb3c0f75.txt,2,53,2,2,8,number,triangle,2,blue,1562,1,2,0,0,0
16,4,1,9,number,circle,4,yellow,1339,1,4,0,0,0,wcst_pazienti.2021-01-13-1620.data.cf1e5820-2311-4c41-82d1-cc09cb3c0f75.txt,2,16,4,1,9,number,circle,4,yellow,1339,1,4,0,0,0
37,2,4,10,number,star,2,blue,1059,1,2,0,0,0,wcst_pazienti.2021-01-13-1620.data.cf1e5820-2311-4c41-82d1-cc09cb3c0f75.txt,2,37,2,4,10,number,star,2,blue,1059,1,2,0,0,0
46,2,4,1,color,star,4,green,1220,2,4,1,1,0,wcst_pazienti.2021-01-13-1620.data.cf1e5820-2311-4c41-82d1-cc09cb3c0f75.txt,3,46,2,4,1,color,star,4,green,1220,2,4,1,1,0
45,3,4,2,color,star,4,blue,912,1,3,0,0,0,wcst_pazienti.2021-01-13-1620.data.cf1e5820-2311-4c41-82d1-cc09cb3c0f75.txt,3,45,3,4,2,color,star,4,blue,912,1,3,0,0,0
27,1,3,3,color,cross,3,red,1013,1,1,0,0,0,wcst_pazienti.2021-01-13-1620.data.cf1e5820-2311-4c41-82d1-cc09cb3c0f75.txt,3,27,1,3,3,color,cross,3,red,1013,1,1,0,0,0
15,1,4,4,color,circle,4,red,795,1,1,0,0,0,wcst_pazienti.2021-01-13-1620.data.cf1e5820-2311-4c41-82d1-cc09cb3c0f75.txt,3,15,1,4,4,color,circle,4,red,795,1,1,0,0,0
19,1,1,5,color,cross,1,red,946,1,1,0,0,0,wcst_pazienti.2021-01-13-1620.data.cf1e5820-2311-4c41-82d1-cc09cb3c0f75.txt,3,19,1,1,5,color,cross,1,red,946,1,1,0,0,0
57,3,3,6,color,triangle,3,blue,1222,1,3,0,0,0,wcst_pazienti.2021-01-13-1620.data.cf1e5820-2311-4c41-82d1-cc09cb3c0f75.txt,3,57,3,3,6,color,triangle,3,blue,1222,1,3,0,0,0
22,2,2,7,color,cross,2,green,1033,1,2,0,0,0,wcst_pazienti.2021-01-13-1620.data.cf1e5820-2311-4c41-82d1-cc09cb3c0f75.txt,3,22,2,2,7,color,cross,2,green,1033,1,2,0,0,0
49,3,1,8,color,triangle,1,blue,1061,1,3,0,0,0,wcst_pazienti.2021-01-13-1620.data.cf1e5820-2311-4c41-82d1-cc09cb3c0f75.txt,3,49,3,1,8,color,triangle,1,blue,1061,1,3,0,0,0
51,1,1,9,color,triangle,1,red,1069,1,1,0,0,0,wcst_pazienti.2021-01-13-1620.data.cf1e5820-2311-4c41-82d1-cc09cb3c0f75.txt,3,51,1,1,9,color,triangle,1,red,1069,1,1,0,0,0
13,3,4,10,color,circle,4,blue,1030,1,3,0,0,0,wcst_pazienti.2021-01-13-1620.data.cf1e5820-2311-4c41-82d1-cc09cb3c0f75.txt,3,13,3,4,10,color,circle,4,blue,1030,1,3,0,0,0
32,3,4,1,shape,cross,4,yellow,1375,2,4,1,1,0,wcst_pazienti.2021-01-13-1620.data.cf1e5820-2311-4c41-82d1-cc09cb3c0f75.txt,4,32,3,4,1,shape,cross,4,yellow,1375,2,4,1,1,0
28,3,4,2,shape,cross,3,yellow,1339,1,3,0,0,0,wcst_pazienti.2021-01-13-1620.data.cf1e5820-2311-4c41-82d1-cc09cb3c0f75.txt,4,28,3,4,2,shape,cross,3,yellow,1339,1,3,0,0,0
23,3,1,3,shape,cross,2,red,1303,1,3,0,0,0,wcst_pazienti.2021-01-13-1620.data.cf1e5820-2311-4c41-82d1-cc09cb3c0f75.txt,4,23,3,1,3,shape,cross,2,red,1303,1,3,0,0,0
9,1,3,4,shape,circle,3,blue,1882,1,1,0,0,0,wcst_pazienti.2021-01-13-1620.data.cf1e5820-2311-4c41-82d1-cc09cb3c0f75.txt,4,9,1,3,4,shape,circle,3,blue,1882,1,1,0,0,0
64,2,4,5,shape,triangle,4,yellow,1192,1,2,0,0,0,wcst_pazienti.2021-01-13-1620.data.cf1e5820-2311-4c41-82d1-cc09cb3c0f75.txt,4,64,2,4,5,shape,triangle,4,yellow,1192,1,2,0,0,0
36,4,4,6,shape,star,1,yellow,1583,1,4,0,0,0,wcst_pazienti.2021-01-13-1620.data.cf1e5820-2311-4c41-82d1-cc09cb3c0f75.txt,4,36,4,4,6,shape,star,1,yellow,1583,1,4,0,0,0
63,2,1,7,shape,triangle,4,red,1535,1,2,0,0,0,wcst_pazienti.2021-01-13-1620.data.cf1e5820-2311-4c41-82d1-cc09cb3c0f75.txt,4,63,2,1,7,shape,triangle,4,red,1535,1,2,0,0,0
59,2,1,8,shape,triangle,3,red,1122,1,2,0,0,0,wcst_pazienti.2021-01-13-1620.data.cf1e5820-2311-4c41-82d1-cc09cb3c0f75.txt,4,59,2,1,8,shape,triangle,3,red,1122,1,2,0,0,0
20,3,4,9,shape,cross,1,yellow,1459,1,3,0,0,0,wcst_pazienti.2021-01-13-1620.data.cf1e5820-2311-4c41-82d1-cc09cb3c0f75.txt,4,20,3,4,9,shape,cross,1,yellow,1459,1,3,0,0,0
2,1,2,10,shape,circle,1,green,2333,1,1,0,0,0,wcst_pazienti.2021-01-13-1620.data.cf1e5820-2311-4c41-82d1-cc09cb3c0f75.txt,4,2,1,2,10,shape,circle,1,green,2333,1,1,0,0,0
24,2,3,1,number,cross,2,yellow,1602,2,3,1,1,0,wcst_pazienti.2021-01-13-1620.data.cf1e5820-2311-4c41-82d1-cc09cb3c0f75.txt,5,24,2,3,1,number,cross,2,yellow,1602,2,3,1,1,0
5,2,1,2,number,circle,2,blue,2112,1,2,0,0,0,wcst_pazienti.2021-01-13-1620.data.cf1e5820-2311-4c41-82d1-cc09cb3c0f75.txt,5,5,2,1,2,number,circle,2,blue,2112,1,2,0,0,0
42,3,4,3,number,star,3,green,1252,1,3,0,0,0,wcst_pazienti.2021-01-13-1620.data.cf1e5820-2311-4c41-82d1-cc09cb3c0f75.txt,5,42,3,4,3,number,star,3,green,1252,1,3,0,0,0
10,3,1,4,number,circle,3,green,1505,1,3,0,0,0,wcst_pazienti.2021-01-13-1620.data.cf1e5820-2311-4c41-82d1-cc09cb3c0f75.txt,5,10,3,1,4,number,circle,3,green,1505,1,3,0,0,0
29,4,3,5,number,cross,4,blue,1608,1,4,0,0,0,wcst_pazienti.2021-01-13-1620.data.cf1e5820-2311-4c41-82d1-cc09cb3c0f75.txt,5,29,4,3,5,number,cross,4,blue,1608,1,4,0,0,0
47,4,4,6,number,star,4,red,1104,1,4,0,0,0,wcst_pazienti.2021-01-13-1620.data.cf1e5820-2311-4c41-82d1-cc09cb3c0f75.txt,5,47,4,4,6,number,star,4,red,1104,1,4,0,0,0
31,4,3,7,number,cross,4,red,1095,1,4,0,0,0,wcst_pazienti.2021-01-13-1620.data.cf1e5820-2311-4c41-82d1-cc09cb3c0f75.txt,5,31,4,3,7,number,cross,4,red,1095,1,4,0,0,0
38,2,4,8,number,star,2,green,1679,1,2,0,0,0,wcst_pazienti.2021-01-13-1620.data.cf1e5820-2311-4c41-82d1-cc09cb3c0f75.txt,5,38,2,4,8,number,star,2,green,1679,1,2,0,0,0
21,2,3,9,number,cross,2,blue,886,1,2,0,0,0,wcst_pazienti.2021-01-13-1620.data.cf1e5820-2311-4c41-82d1-cc09cb3c0f75.txt,5,21,2,3,9,number,cross,2,blue,886,1,2,0,0,0
6,2,1,10,number,circle,2,green,882,1,2,0,0,0,wcst_pazienti.2021-01-13-1620.data.cf1e5820-2311-4c41-82d1-cc09cb3c0f75.txt,5,6,2,1,10,number,circle,2,green,882,1,2,0,0,0
12,4,3,1,color,circle,3,yellow,1166,2,3,1,1,0,wcst_pazienti.2021-01-13-1620.data.cf1e5820-2311-4c41-82d1-cc09cb3c0f75.txt,6,12,4,3,1,color,circle,3,yellow,1166,2,3,1,1,0
61,3,4,2,color,triangle,4,blue,1881,2,2,1,0,1,wcst_pazienti.2021-01-13-1620.data.cf1e5820-2311-4c41-82d1-cc09cb3c0f75.txt,6,61,3,4,2,color,triangle,4,blue,1881,2,2,1,0,1
55,1,2,3,color,triangle,2,red,1753,1,1,0,0,0,wcst_pazienti.2021-01-13-1620.data.cf1e5820-2311-4c41-82d1-cc09cb3c0f75.txt,6,55,1,2,3,color,triangle,2,red,1753,1,1,0,0,0
41,3,3,4,color,star,3,blue,1589,1,3,0,0,0,wcst_pazienti.2021-01-13-1620.data.cf1e5820-2311-4c41-82d1-cc09cb3c0f75.txt,6,41,3,3,4,color,star,3,blue,1589,1,3,0,0,0
44,4,3,5,color,star,3,yellow,1299,1,4,0,0,0,wcst_pazienti.2021-01-13-1620.data.cf1e5820-2311-4c41-82d1-cc09cb3c0f75.txt,6,44,4,3,5,color,star,3,yellow,1299,1,4,0,0,0
4,4,1,6,color,circle,1,yellow,1634,1,4,0,0,0,wcst_pazienti.2021-01-13-1620.data.cf1e5820-2311-4c41-82d1-cc09cb3c0f75.txt,6,4,4,1,6,color,circle,1,yellow,1634,1,4,0,0,0
60,4,3,7,color,triangle,3,yellow,1275,1,4,0,0,0,wcst_pazienti.2021-01-13-1620.data.cf1e5820-2311-4c41-82d1-cc09cb3c0f75.txt,6,60,4,3,7,color,triangle,3,yellow,1275,1,4,0,0,0
43,1,3,8,color,star,3,red,2120,1,1,0,0,0,wcst_pazienti.2021-01-13-1620.data.cf1e5820-2311-4c41-82d1-cc09cb3c0f75.txt,6,43,1,3,8,color,star,3,red,2120,1,1,0,0,0
8,4,2,9,color,circle,2,yellow,1394,1,4,0,0,0,wcst_pazienti.2021-01-13-1620.data.cf1e5820-2311-4c41-82d1-cc09cb3c0f75.txt,6,8,4,2,9,color,circle,2,yellow,1394,1,4,0,0,0
18,2,1,10,color,cross,1,green,1281,1,2,0,0,0,wcst_pazienti.2021-01-13-1620.data.cf1e5820-2311-4c41-82d1-cc09cb3c0f75.txt,6,18,2,1,10,color,cross,1,green,1281,1,2,0,0,0
40,4,0,1,shape,star,2,yellow,3901,1,4,0,0,0,wcst_pazienti.2021-01-13-1802.data.df6df439-588d-4838-95d6-1b8e917d0143.txt,1,40,4,0,1,shape,star,2,yellow,3901,1,4,0,0,0
35,4,0,2,shape,star,1,red,5519,1,4,0,0,0,wcst_pazienti.2021-01-13-1802.data.df6df439-588d-4838-95d6-1b8e917d0143.txt,1,35,4,0,2,shape,star,1,red,5519,1,4,0,0,0
52,2,0,3,shape,triangle,1,yellow,1686,1,2,0,0,0,wcst_pazienti.2021-01-13-1802.data.df6df439-588d-4838-95d6-1b8e917d0143.txt,1,52,2,0,3,shape,triangle,1,yellow,1686,1,2,0,0,0
34,4,0,4,shape,star,1,green,1847,1,4,0,0,0,wcst_pazienti.2021-01-13-1802.data.df6df439-588d-4838-95d6-1b8e917d0143.txt,1,34,4,0,4,shape,star,1,green,1847,1,4,0,0,0
33,4,0,5,shape,star,1,blue,1366,1,4,0,0,0,wcst_pazienti.2021-01-13-1802.data.df6df439-588d-4838-95d6-1b8e917d0143.txt,1,33,4,0,5,shape,star,1,blue,1366,1,4,0,0,0
1,1,0,6,shape,circle,1,blue,1619,1,1,0,0,0,wcst_pazienti.2021-01-13-1802.data.df6df439-588d-4838-95d6-1b8e917d0143.txt,1,1,1,0,6,shape,circle,1,blue,1619,1,1,0,0,0
39,4,0,7,shape,star,2,red,1743,1,4,0,0,0,wcst_pazienti.2021-01-13-1802.data.df6df439-588d-4838-95d6-1b8e917d0143.txt,1,39,4,0,7,shape,star,2,red,1743,1,4,0,0,0
7,1,0,8,shape,circle,2,red,1479,1,1,0,0,0,wcst_pazienti.2021-01-13-1802.data.df6df439-588d-4838-95d6-1b8e917d0143.txt,1,7,1,0,8,shape,circle,2,red,1479,1,1,0,0,0
56,2,0,9,shape,triangle,2,yellow,1727,1,2,0,0,0,wcst_pazienti.2021-01-13-1802.data.df6df439-588d-4838-95d6-1b8e917d0143.txt,1,56,2,0,9,shape,triangle,2,yellow,1727,1,2,0,0,0
14,1,0,10,shape,circle,4,green,1517,1,1,0,0,0,wcst_pazienti.2021-01-13-1802.data.df6df439-588d-4838-95d6-1b8e917d0143.txt,1,14,1,0,10,shape,circle,4,green,1517,1,1,0,0,0
62,4,2,1,number,triangle,4,green,1316,2,2,1,1,0,wcst_pazienti.2021-01-13-1802.data.df6df439-588d-4838-95d6-1b8e917d0143.txt,2,62,4,2,1,number,triangle,4,green,1316,2,2,1,1,0
58,3,2,2,number,triangle,3,green,3357,1,3,0,0,0,wcst_pazienti.2021-01-13-1802.data.df6df439-588d-4838-95d6-1b8e917d0143.txt,2,58,3,2,2,number,triangle,3,green,3357,1,3,0,0,0
26,3,3,3,number,cross,3,green,1133,1,3,0,0,0,wcst_pazienti.2021-01-13-1802.data.df6df439-588d-4838-95d6-1b8e917d0143.txt,2,26,3,3,3,number,cross,3,green,1133,1,3,0,0,0
30,4,3,4,number,cross,4,green,1373,1,4,0,0,0,wcst_pazienti.2021-01-13-1802.data.df6df439-588d-4838-95d6-1b8e917d0143.txt,2,30,4,3,4,number,cross,4,green,1373,1,4,0,0,0
50,1,2,5,number,triangle,1,green,1712,1,1,0,0,0,wcst_pazienti.2021-01-13-1802.data.df6df439-588d-4838-95d6-1b8e917d0143.txt,2,50,1,2,5,number,triangle,1,green,1712,1,1,0,0,0
17,1,3,6,number,cross,1,blue,2270,1,1,0,0,0,wcst_pazienti.2021-01-13-1802.data.df6df439-588d-4838-95d6-1b8e917d0143.txt,2,17,1,3,6,number,cross,1,blue,2270,1,1,0,0,0
11,3,1,7,number,circle,3,red,2217,1,3,0,0,0,wcst_pazienti.2021-01-13-1802.data.df6df439-588d-4838-95d6-1b8e917d0143.txt,2,11,3,1,7,number,circle,3,red,2217,1,3,0,0,0
53,2,2,8,number,triangle,2,blue,1407,1,2,0,0,0,wcst_pazienti.2021-01-13-1802.data.df6df439-588d-4838-95d6-1b8e917d0143.txt,2,53,2,2,8,number,triangle,2,blue,1407,1,2,0,0,0
16,4,1,9,number,circle,4,yellow,1701,1,4,0,0,0,wcst_pazienti.2021-01-13-1802.data.df6df439-588d-4838-95d6-1b8e917d0143.txt,2,16,4,1,9,number,circle,4,yellow,1701,1,4,0,0,0
37,2,4,10,number,star,2,blue,1851,1,2,0,0,0,wcst_pazienti.2021-01-13-1802.data.df6df439-588d-4838-95d6-1b8e917d0143.txt,2,37,2,4,10,number,star,2,blue,1851,1,2,0,0,0
46,2,4,1,color,star,4,green,1393,2,4,1,1,0,wcst_pazienti.2021-01-13-1802.data.df6df439-588d-4838-95d6-1b8e917d0143.txt,3,46,2,4,1,color,star,4,green,1393,2,4,1,1,0
45,3,4,2,color,star,4,blue,1293,1,3,0,0,0,wcst_pazienti.2021-01-13-1802.data.df6df439-588d-4838-95d6-1b8e917d0143.txt,3,45,3,4,2,color,star,4,blue,1293,1,3,0,0,0
27,1,3,3,color,cross,3,red,1490,1,1,0,0,0,wcst_pazienti.2021-01-13-1802.data.df6df439-588d-4838-95d6-1b8e917d0143.txt,3,27,1,3,3,color,cross,3,red,1490,1,1,0,0,0
15,1,4,4,color,circle,4,red,1191,1,1,0,0,0,wcst_pazienti.2021-01-13-1802.data.df6df439-588d-4838-95d6-1b8e917d0143.txt,3,15,1,4,4,color,circle,4,red,1191,1,1,0,0,0
19,1,1,5,color,cross,1,red,913,1,1,0,0,0,wcst_pazienti.2021-01-13-1802.data.df6df439-588d-4838-95d6-1b8e917d0143.txt,3,19,1,1,5,color,cross,1,red,913,1,1,0,0,0
57,3,3,6,color,triangle,3,blue,1282,1,3,0,0,0,wcst_pazienti.2021-01-13-1802.data.df6df439-588d-4838-95d6-1b8e917d0143.txt,3,57,3,3,6,color,triangle,3,blue,1282,1,3,0,0,0
22,2,2,7,color,cross,2,green,2862,1,2,0,0,0,wcst_pazienti.2021-01-13-1802.data.df6df439-588d-4838-95d6-1b8e917d0143.txt,3,22,2,2,7,color,cross,2,green,2862,1,2,0,0,0
49,3,1,8,color,triangle,1,blue,1071,1,3,0,0,0,wcst_pazienti.2021-01-13-1802.data.df6df439-588d-4838-95d6-1b8e917d0143.txt,3,49,3,1,8,color,triangle,1,blue,1071,1,3,0,0,0
51,1,1,9,color,triangle,1,red,1346,1,1,0,0,0,wcst_pazienti.2021-01-13-1802.data.df6df439-588d-4838-95d6-1b8e917d0143.txt,3,51,1,1,9,color,triangle,1,red,1346,1,1,0,0,0
13,3,4,10,color,circle,4,blue,1280,1,3,0,0,0,wcst_pazienti.2021-01-13-1802.data.df6df439-588d-4838-95d6-1b8e917d0143.txt,3,13,3,4,10,color,circle,4,blue,1280,1,3,0,0,0
32,3,4,1,shape,cross,4,yellow,1346,2,4,1,1,0,wcst_pazienti.2021-01-13-1802.data.df6df439-588d-4838-95d6-1b8e917d0143.txt,4,32,3,4,1,shape,cross,4,yellow,1346,2,4,1,1,0
28,3,4,2,shape,cross,3,yellow,1546,1,3,0,0,0,wcst_pazienti.2021-01-13-1802.data.df6df439-588d-4838-95d6-1b8e917d0143.txt,4,28,3,4,2,shape,cross,3,yellow,1546,1,3,0,0,0
23,3,1,3,shape,cross,2,red,1271,1,3,0,0,0,wcst_pazienti.2021-01-13-1802.data.df6df439-588d-4838-95d6-1b8e917d0143.txt,4,23,3,1,3,shape,cross,2,red,1271,1,3,0,0,0
9,1,3,4,shape,circle,3,blue,1823,2,3,1,1,0,wcst_pazienti.2021-01-13-1802.data.df6df439-588d-4838-95d6-1b8e917d0143.txt,4,9,1,3,4,shape,circle,3,blue,1823,2,3,1,1,0
64,2,4,5,shape,triangle,4,yellow,1370,1,2,0,0,0,wcst_pazienti.2021-01-13-1802.data.df6df439-588d-4838-95d6-1b8e917d0143.txt,4,64,2,4,5,shape,triangle,4,yellow,1370,1,2,0,0,0
36,4,4,6,shape,star,1,yellow,1972,1,4,0,0,0,wcst_pazienti.2021-01-13-1802.data.df6df439-588d-4838-95d6-1b8e917d0143.txt,4,36,4,4,6,shape,star,1,yellow,1972,1,4,0,0,0
63,2,1,7,shape,triangle,4,red,3197,1,2,0,0,0,wcst_pazienti.2021-01-13-1802.data.df6df439-588d-4838-95d6-1b8e917d0143.txt,4,63,2,1,7,shape,triangle,4,red,3197,1,2,0,0,0
59,2,1,8,shape,triangle,3,red,1191,1,2,0,0,0,wcst_pazienti.2021-01-13-1802.data.df6df439-588d-4838-95d6-1b8e917d0143.txt,4,59,2,1,8,shape,triangle,3,red,1191,1,2,0,0,0
20,3,4,9,shape,cross,1,yellow,1951,1,3,0,0,0,wcst_pazienti.2021-01-13-1802.data.df6df439-588d-4838-95d6-1b8e917d0143.txt,4,20,3,4,9,shape,cross,1,yellow,1951,1,3,0,0,0
2,1,2,10,shape,circle,1,green,1360,1,1,0,0,0,wcst_pazienti.2021-01-13-1802.data.df6df439-588d-4838-95d6-1b8e917d0143.txt,4,2,1,2,10,shape,circle,1,green,1360,1,1,0,0,0
24,2,3,1,number,cross,2,yellow,1535,2,3,1,1,0,wcst_pazienti.2021-01-13-1802.data.df6df439-588d-4838-95d6-1b8e917d0143.txt,5,24,2,3,1,number,cross,2,yellow,1535,2,3,1,1,0
5,2,1,2,number,circle,2,blue,1850,1,2,0,0,0,wcst_pazienti.2021-01-13-1802.data.df6df439-588d-4838-95d6-1b8e917d0143.txt,5,5,2,1,2,number,circle,2,blue,1850,1,2,0,0,0
42,3,4,3,number,star,3,green,1182,1,3,0,0,0,wcst_pazienti.2021-01-13-1802.data.df6df439-588d-4838-95d6-1b8e917d0143.txt,5,42,3,4,3,number,star,3,green,1182,1,3,0,0,0
10,3,1,4,number,circle,3,green,1475,1,3,0,0,0,wcst_pazienti.2021-01-13-1802.data.df6df439-588d-4838-95d6-1b8e917d0143.txt,5,10,3,1,4,number,circle,3,green,1475,1,3,0,0,0
29,4,3,5,number,cross,4,blue,1561,1,4,0,0,0,wcst_pazienti.2021-01-13-1802.data.df6df439-588d-4838-95d6-1b8e917d0143.txt,5,29,4,3,5,number,cross,4,blue,1561,1,4,0,0,0
47,4,4,6,number,star,4,red,1131,1,4,0,0,0,wcst_pazienti.2021-01-13-1802.data.df6df439-588d-4838-95d6-1b8e917d0143.txt,5,47,4,4,6,number,star,4,red,1131,1,4,0,0,0
31,4,3,7,number,cross,4,red,901,1,4,0,0,0,wcst_pazienti.2021-01-13-1802.data.df6df439-588d-4838-95d6-1b8e917d0143.txt,5,31,4,3,7,number,cross,4,red,901,1,4,0,0,0
38,2,4,8,number,star,2,green,1225,1,2,0,0,0,wcst_pazienti.2021-01-13-1802.data.df6df439-588d-4838-95d6-1b8e917d0143.txt,5,38,2,4,8,number,star,2,green,1225,1,2,0,0,0
21,2,3,9,number,cross,2,blue,915,1,2,0,0,0,wcst_pazienti.2021-01-13-1802.data.df6df439-588d-4838-95d6-1b8e917d0143.txt,5,21,2,3,9,number,cross,2,blue,915,1,2,0,0,0
6,2,1,10,number,circle,2,green,867,1,2,0,0,0,wcst_pazienti.2021-01-13-1802.data.df6df439-588d-4838-95d6-1b8e917d0143.txt,5,6,2,1,10,number,circle,2,green,867,1,2,0,0,0
12,4,3,1,color,circle,3,yellow,1167,2,3,1,1,0,wcst_pazienti.2021-01-13-1802.data.df6df439-588d-4838-95d6-1b8e917d0143.txt,6,12,4,3,1,color,circle,3,yellow,1167,2,3,1,1,0
61,3,4,2,color,triangle,4,blue,1017,1,3,0,0,0,wcst_pazienti.2021-01-13-1802.data.df6df439-588d-4838-95d6-1b8e917d0143.txt,6,61,3,4,2,color,triangle,4,blue,1017,1,3,0,0,0
55,1,2,3,color,triangle,2,red,1176,1,1,0,0,0,wcst_pazienti.2021-01-13-1802.data.df6df439-588d-4838-95d6-1b8e917d0143.txt,6,55,1,2,3,color,triangle,2,red,1176,1,1,0,0,0
41,3,3,4,color,star,3,blue,1499,1,3,0,0,0,wcst_pazienti.2021-01-13-1802.data.df6df439-588d-4838-95d6-1b8e917d0143.txt,6,41,3,3,4,color,star,3,blue,1499,1,3,0,0,0
44,4,3,5,color,star,3,yellow,1698,1,4,0,0,0,wcst_pazienti.2021-01-13-1802.data.df6df439-588d-4838-95d6-1b8e917d0143.txt,6,44,4,3,5,color,star,3,yellow,1698,1,4,0,0,0
4,4,1,6,color,circle,1,yellow,1753,1,4,0,0,0,wcst_pazienti.2021-01-13-1802.data.df6df439-588d-4838-95d6-1b8e917d0143.txt,6,4,4,1,6,color,circle,1,yellow,1753,1,4,0,0,0
60,4,3,7,color,triangle,3,yellow,1498,1,4,0,0,0,wcst_pazienti.2021-01-13-1802.data.df6df439-588d-4838-95d6-1b8e917d0143.txt,6,60,4,3,7,color,triangle,3,yellow,1498,1,4,0,0,0
43,1,3,8,color,star,3,red,1502,1,1,0,0,0,wcst_pazienti.2021-01-13-1802.data.df6df439-588d-4838-95d6-1b8e917d0143.txt,6,43,1,3,8,color,star,3,red,1502,1,1,0,0,0
8,4,2,9,color,circle,2,yellow,1819,1,4,0,0,0,wcst_pazienti.2021-01-13-1802.data.df6df439-588d-4838-95d6-1b8e917d0143.txt,6,8,4,2,9,color,circle,2,yellow,1819,1,4,0,0,0
18,2,1,10,color,cross,1,green,1786,1,2,0,0,0,wcst_pazienti.2021-01-13-1802.data.df6df439-588d-4838-95d6-1b8e917d0143.txt,6,18,2,1,10,color,cross,1,green,1786,1,2,0,0,0
40,4,0,1,shape,star,2,yellow,2297,2,2,1,0,1,wcst_pazienti.2021-01-14-1031.data.7ec28271-f912-4bb1-b3f4-140925594a39.txt,1,40,4,0,1,shape,star,2,yellow,2297,2,2,1,0,1
35,4,0,2,shape,star,1,red,2679,2,1,1,0,1,wcst_pazienti.2021-01-14-1031.data.7ec28271-f912-4bb1-b3f4-140925594a39.txt,1,35,4,0,2,shape,star,1,red,2679,2,1,1,0,1
52,2,0,3,shape,triangle,1,yellow,7485,2,1,1,0,1,wcst_pazienti.2021-01-14-1031.data.7ec28271-f912-4bb1-b3f4-140925594a39.txt,1,52,2,0,3,shape,triangle,1,yellow,7485,2,1,1,0,1
34,4,0,4,shape,star,1,green,2233,1,4,0,0,0,wcst_pazienti.2021-01-14-1031.data.7ec28271-f912-4bb1-b3f4-140925594a39.txt,1,34,4,0,4,shape,star,1,green,2233,1,4,0,0,0
33,4,0,5,shape,star,1,blue,1067,1,4,0,0,0,wcst_pazienti.2021-01-14-1031.data.7ec28271-f912-4bb1-b3f4-140925594a39.txt,1,33,4,0,5,shape,star,1,blue,1067,1,4,0,0,0
1,1,0,6,shape,circle,1,blue,646,2,4,1,0,1,wcst_pazienti.2021-01-14-1031.data.7ec28271-f912-4bb1-b3f4-140925594a39.txt,1,1,1,0,6,shape,circle,1,blue,646,2,4,1,0,1
39,4,0,7,shape,star,2,red,1692,1,4,0,0,0,wcst_pazienti.2021-01-14-1031.data.7ec28271-f912-4bb1-b3f4-140925594a39.txt,1,39,4,0,7,shape,star,2,red,1692,1,4,0,0,0
7,1,0,8,shape,circle,2,red,1818,1,1,0,0,0,wcst_pazienti.2021-01-14-1031.data.7ec28271-f912-4bb1-b3f4-140925594a39.txt,1,7,1,0,8,shape,circle,2,red,1818,1,1,0,0,0
56,2,0,9,shape,triangle,2,yellow,1702,1,2,0,0,0,wcst_pazienti.2021-01-14-1031.data.7ec28271-f912-4bb1-b3f4-140925594a39.txt,1,56,2,0,9,shape,triangle,2,yellow,1702,1,2,0,0,0
14,1,0,10,shape,circle,4,green,1687,1,1,0,0,0,wcst_pazienti.2021-01-14-1031.data.7ec28271-f912-4bb1-b3f4-140925594a39.txt,1,14,1,0,10,shape,circle,4,green,1687,1,1,0,0,0
62,4,2,1,number,triangle,4,green,1855,2,2,1,1,0,wcst_pazienti.2021-01-14-1031.data.7ec28271-f912-4bb1-b3f4-140925594a39.txt,2,62,4,2,1,number,triangle,4,green,1855,2,2,1,1,0
58,3,2,2,number,triangle,3,green,2494,1,3,0,0,0,wcst_pazienti.2021-01-14-1031.data.7ec28271-f912-4bb1-b3f4-140925594a39.txt,2,58,3,2,2,number,triangle,3,green,2494,1,3,0,0,0
26,3,3,3,number,cross,3,green,2001,1,3,0,0,0,wcst_pazienti.2021-01-14-1031.data.7ec28271-f912-4bb1-b3f4-140925594a39.txt,2,26,3,3,3,number,cross,3,green,2001,1,3,0,0,0
30,4,3,4,number,cross,4,green,1980,1,4,0,0,0,wcst_pazienti.2021-01-14-1031.data.7ec28271-f912-4bb1-b3f4-140925594a39.txt,2,30,4,3,4,number,cross,4,green,1980,1,4,0,0,0
50,1,2,5,number,triangle,1,green,2222,1,1,0,0,0,wcst_pazienti.2021-01-14-1031.data.7ec28271-f912-4bb1-b3f4-140925594a39.txt,2,50,1,2,5,number,triangle,1,green,2222,1,1,0,0,0
17,1,3,6,number,cross,1,blue,876,1,1,0,0,0,wcst_pazienti.2021-01-14-1031.data.7ec28271-f912-4bb1-b3f4-140925594a39.txt,2,17,1,3,6,number,cross,1,blue,876,1,1,0,0,0
11,3,1,7,number,circle,3,red,1649,1,3,0,0,0,wcst_pazienti.2021-01-14-1031.data.7ec28271-f912-4bb1-b3f4-140925594a39.txt,2,11,3,1,7,number,circle,3,red,1649,1,3,0,0,0
53,2,2,8,number,triangle,2,blue,1477,1,2,0,0,0,wcst_pazienti.2021-01-14-1031.data.7ec28271-f912-4bb1-b3f4-140925594a39.txt,2,53,2,2,8,number,triangle,2,blue,1477,1,2,0,0,0
16,4,1,9,number,circle,4,yellow,1864,1,4,0,0,0,wcst_pazienti.2021-01-14-1031.data.7ec28271-f912-4bb1-b3f4-140925594a39.txt,2,16,4,1,9,number,circle,4,yellow,1864,1,4,0,0,0
37,2,4,10,number,star,2,blue,1445,1,2,0,0,0,wcst_pazienti.2021-01-14-1031.data.7ec28271-f912-4bb1-b3f4-140925594a39.txt,2,37,2,4,10,number,star,2,blue,1445,1,2,0,0,0
46,2,4,1,color,star,4,green,1490,2,4,1,1,0,wcst_pazienti.2021-01-14-1031.data.7ec28271-f912-4bb1-b3f4-140925594a39.txt,3,46,2,4,1,color,star,4,green,1490,2,4,1,1,0
45,3,4,2,color,star,4,blue,1203,1,3,0,0,0,wcst_pazienti.2021-01-14-1031.data.7ec28271-f912-4bb1-b3f4-140925594a39.txt,3,45,3,4,2,color,star,4,blue,1203,1,3,0,0,0
27,1,3,3,color,cross,3,red,1757,1,1,0,0,0,wcst_pazienti.2021-01-14-1031.data.7ec28271-f912-4bb1-b3f4-140925594a39.txt,3,27,1,3,3,color,cross,3,red,1757,1,1,0,0,0
15,1,4,4,color,circle,4,red,829,1,1,0,0,0,wcst_pazienti.2021-01-14-1031.data.7ec28271-f912-4bb1-b3f4-140925594a39.txt,3,15,1,4,4,color,circle,4,red,829,1,1,0,0,0
19,1,1,5,color,cross,1,red,1327,1,1,0,0,0,wcst_pazienti.2021-01-14-1031.data.7ec28271-f912-4bb1-b3f4-140925594a39.txt,3,19,1,1,5,color,cross,1,red,1327,1,1,0,0,0
57,3,3,6,color,triangle,3,blue,2087,1,3,0,0,0,wcst_pazienti.2021-01-14-1031.data.7ec28271-f912-4bb1-b3f4-140925594a39.txt,3,57,3,3,6,color,triangle,3,blue,2087,1,3,0,0,0
22,2,2,7,color,cross,2,green,1532,1,2,0,0,0,wcst_pazienti.2021-01-14-1031.data.7ec28271-f912-4bb1-b3f4-140925594a39.txt,3,22,2,2,7,color,cross,2,green,1532,1,2,0,0,0
49,3,1,8,color,triangle,1,blue,1241,1,3,0,0,0,wcst_pazienti.2021-01-14-1031.data.7ec28271-f912-4bb1-b3f4-140925594a39.txt,3,49,3,1,8,color,triangle,1,blue,1241,1,3,0,0,0
51,1,1,9,color,triangle,1,red,1610,1,1,0,0,0,wcst_pazienti.2021-01-14-1031.data.7ec28271-f912-4bb1-b3f4-140925594a39.txt,3,51,1,1,9,color,triangle,1,red,1610,1,1,0,0,0
13,3,4,10,color,circle,4,blue,1671,1,3,0,0,0,wcst_pazienti.2021-01-14-1031.data.7ec28271-f912-4bb1-b3f4-140925594a39.txt,3,13,3,4,10,color,circle,4,blue,1671,1,3,0,0,0
32,3,4,1,shape,cross,4,yellow,1762,2,4,1,1,0,wcst_pazienti.2021-01-14-1031.data.7ec28271-f912-4bb1-b3f4-140925594a39.txt,4,32,3,4,1,shape,cross,4,yellow,1762,2,4,1,1,0
28,3,4,2,shape,cross,3,yellow,1741,1,3,0,0,0,wcst_pazienti.2021-01-14-1031.data.7ec28271-f912-4bb1-b3f4-140925594a39.txt,4,28,3,4,2,shape,cross,3,yellow,1741,1,3,0,0,0
23,3,1,3,shape,cross,2,red,1022,1,3,0,0,0,wcst_pazienti.2021-01-14-1031.data.7ec28271-f912-4bb1-b3f4-140925594a39.txt,4,23,3,1,3,shape,cross,2,red,1022,1,3,0,0,0
9,1,3,4,shape,circle,3,blue,1640,1,1,0,0,0,wcst_pazienti.2021-01-14-1031.data.7ec28271-f912-4bb1-b3f4-140925594a39.txt,4,9,1,3,4,shape,circle,3,blue,1640,1,1,0,0,0
64,2,4,5,shape,triangle,4,yellow,1578,2,4,1,1,0,wcst_pazienti.2021-01-14-1031.data.7ec28271-f912-4bb1-b3f4-140925594a39.txt,4,64,2,4,5,shape,triangle,4,yellow,1578,2,4,1,1,0
36,4,4,6,shape,star,1,yellow,1635,2,1,1,0,1,wcst_pazienti.2021-01-14-1031.data.7ec28271-f912-4bb1-b3f4-140925594a39.txt,4,36,4,4,6,shape,star,1,yellow,1635,2,1,1,0,1
63,2,1,7,shape,triangle,4,red,2233,2,1,1,1,0,wcst_pazienti.2021-01-14-1031.data.7ec28271-f912-4bb1-b3f4-140925594a39.txt,4,63,2,1,7,shape,triangle,4,red,2233,2,1,1,1,0
59,2,1,8,shape,triangle,3,red,1581,2,3,1,0,1,wcst_pazienti.2021-01-14-1031.data.7ec28271-f912-4bb1-b3f4-140925594a39.txt,4,59,2,1,8,shape,triangle,3,red,1581,2,3,1,0,1
20,3,4,9,shape,cross,1,yellow,3187,2,2,1,0,1,wcst_pazienti.2021-01-14-1031.data.7ec28271-f912-4bb1-b3f4-140925594a39.txt,4,20,3,4,9,shape,cross,1,yellow,3187,2,2,1,0,1
2,1,2,10,shape,circle,1,green,3147,1,1,0,0,0,wcst_pazienti.2021-01-14-1031.data.7ec28271-f912-4bb1-b3f4-140925594a39.txt,4,2,1,2,10,shape,circle,1,green,3147,1,1,0,0,0
24,2,3,1,number,cross,2,yellow,1895,1,2,0,0,0,wcst_pazienti.2021-01-14-1031.data.7ec28271-f912-4bb1-b3f4-140925594a39.txt,5,24,2,3,1,number,cross,2,yellow,1895,1,2,0,0,0
5,2,1,2,number,circle,2,blue,1162,1,2,0,0,0,wcst_pazienti.2021-01-14-1031.data.7ec28271-f912-4bb1-b3f4-140925594a39.txt,5,5,2,1,2,number,circle,2,blue,1162,1,2,0,0,0
42,3,4,3,number,star,3,green,1831,1,3,0,0,0,wcst_pazienti.2021-01-14-1031.data.7ec28271-f912-4bb1-b3f4-140925594a39.txt,5,42,3,4,3,number,star,3,green,1831,1,3,0,0,0
10,3,1,4,number,circle,3,green,1773,1,3,0,0,0,wcst_pazienti.2021-01-14-1031.data.7ec28271-f912-4bb1-b3f4-140925594a39.txt,5,10,3,1,4,number,circle,3,green,1773,1,3,0,0,0
29,4,3,5,number,cross,4,blue,1660,1,4,0,0,0,wcst_pazienti.2021-01-14-1031.data.7ec28271-f912-4bb1-b3f4-140925594a39.txt,5,29,4,3,5,number,cross,4,blue,1660,1,4,0,0,0
47,4,4,6,number,star,4,red,1137,1,4,0,0,0,wcst_pazienti.2021-01-14-1031.data.7ec28271-f912-4bb1-b3f4-140925594a39.txt,5,47,4,4,6,number,star,4,red,1137,1,4,0,0,0
31,4,3,7,number,cross,4,red,947,1,4,0,0,0,wcst_pazienti.2021-01-14-1031.data.7ec28271-f912-4bb1-b3f4-140925594a39.txt,5,31,4,3,7,number,cross,4,red,947,1,4,0,0,0
38,2,4,8,number,star,2,green,1570,1,2,0,0,0,wcst_pazienti.2021-01-14-1031.data.7ec28271-f912-4bb1-b3f4-140925594a39.txt,5,38,2,4,8,number,star,2,green,1570,1,2,0,0,0
21,2,3,9,number,cross,2,blue,1087,1,2,0,0,0,wcst_pazienti.2021-01-14-1031.data.7ec28271-f912-4bb1-b3f4-140925594a39.txt,5,21,2,3,9,number,cross,2,blue,1087,1,2,0,0,0
6,2,1,10,number,circle,2,green,2620,1,2,0,0,0,wcst_pazienti.2021-01-14-1031.data.7ec28271-f912-4bb1-b3f4-140925594a39.txt,5,6,2,1,10,number,circle,2,green,2620,1,2,0,0,0
12,4,3,1,color,circle,3,yellow,2060,2,3,1,1,0,wcst_pazienti.2021-01-14-1031.data.7ec28271-f912-4bb1-b3f4-140925594a39.txt,6,12,4,3,1,color,circle,3,yellow,2060,2,3,1,1,0
61,3,4,2,color,triangle,4,blue,2339,2,4,1,1,0,wcst_pazienti.2021-01-14-1031.data.7ec28271-f912-4bb1-b3f4-140925594a39.txt,6,61,3,4,2,color,triangle,4,blue,2339,2,4,1,1,0
55,1,2,3,color,triangle,2,red,1123,2,2,1,1,0,wcst_pazienti.2021-01-14-1031.data.7ec28271-f912-4bb1-b3f4-140925594a39.txt,6,55,1,2,3,color,triangle,2,red,1123,2,2,1,1,0
41,3,3,4,color,star,3,blue,1715,1,3,0,0,0,wcst_pazienti.2021-01-14-1031.data.7ec28271-f912-4bb1-b3f4-140925594a39.txt,6,41,3,3,4,color,star,3,blue,1715,1,3,0,0,0
44,4,3,5,color,star,3,yellow,1424,1,4,0,0,0,wcst_pazienti.2021-01-14-1031.data.7ec28271-f912-4bb1-b3f4-140925594a39.txt,6,44,4,3,5,color,star,3,yellow,1424,1,4,0,0,0
4,4,1,6,color,circle,1,yellow,2107,1,4,0,0,0,wcst_pazienti.2021-01-14-1031.data.7ec28271-f912-4bb1-b3f4-140925594a39.txt,6,4,4,1,6,color,circle,1,yellow,2107,1,4,0,0,0
60,4,3,7,color,triangle,3,yellow,2288,1,4,0,0,0,wcst_pazienti.2021-01-14-1031.data.7ec28271-f912-4bb1-b3f4-140925594a39.txt,6,60,4,3,7,color,triangle,3,yellow,2288,1,4,0,0,0
43,1,3,8,color,star,3,red,2031,1,1,0,0,0,wcst_pazienti.2021-01-14-1031.data.7ec28271-f912-4bb1-b3f4-140925594a39.txt,6,43,1,3,8,color,star,3,red,2031,1,1,0,0,0
8,4,2,9,color,circle,2,yellow,2049,1,4,0,0,0,wcst_pazienti.2021-01-14-1031.data.7ec28271-f912-4bb1-b3f4-140925594a39.txt,6,8,4,2,9,color,circle,2,yellow,2049,1,4,0,0,0
18,2,1,10,color,cross,1,green,1649,1,2,0,0,0,wcst_pazienti.2021-01-14-1031.data.7ec28271-f912-4bb1-b3f4-140925594a39.txt,6,18,2,1,10,color,cross,1,green,1649,1,2,0,0,0
40,4,0,1,shape,star,2,yellow,4984,1,4,0,0,0,wcst_pazienti.2021-01-19-1533.data.5620a154-ad1f-4533-a75a-f8760c54d626.txt,1,40,4,0,1,shape,star,2,yellow,4984,1,4,0,0,0
35,4,0,2,shape,star,1,red,4401,2,1,1,0,1,wcst_pazienti.2021-01-19-1533.data.5620a154-ad1f-4533-a75a-f8760c54d626.txt,1,35,4,0,2,shape,star,1,red,4401,2,1,1,0,1
52,2,0,3,shape,triangle,1,yellow,5840,1,2,0,0,0,wcst_pazienti.2021-01-19-1533.data.5620a154-ad1f-4533-a75a-f8760c54d626.txt,1,52,2,0,3,shape,triangle,1,yellow,5840,1,2,0,0,0
34,4,0,4,shape,star,1,green,2152,1,4,0,0,0,wcst_pazienti.2021-01-19-1533.data.5620a154-ad1f-4533-a75a-f8760c54d626.txt,1,34,4,0,4,shape,star,1,green,2152,1,4,0,0,0
33,4,0,5,shape,star,1,blue,2239,1,4,0,0,0,wcst_pazienti.2021-01-19-1533.data.5620a154-ad1f-4533-a75a-f8760c54d626.txt,1,33,4,0,5,shape,star,1,blue,2239,1,4,0,0,0
1,1,0,6,shape,circle,1,blue,7002,1,1,0,0,0,wcst_pazienti.2021-01-19-1533.data.5620a154-ad1f-4533-a75a-f8760c54d626.txt,1,1,1,0,6,shape,circle,1,blue,7002,1,1,0,0,0
39,4,0,7,shape,star,2,red,3900,2,2,1,0,1,wcst_pazienti.2021-01-19-1533.data.5620a154-ad1f-4533-a75a-f8760c54d626.txt,1,39,4,0,7,shape,star,2,red,3900,2,2,1,0,1
7,1,0,8,shape,circle,2,red,2881,1,1,0,0,0,wcst_pazienti.2021-01-19-1533.data.5620a154-ad1f-4533-a75a-f8760c54d626.txt,1,7,1,0,8,shape,circle,2,red,2881,1,1,0,0,0
56,2,0,9,shape,triangle,2,yellow,1951,1,2,0,0,0,wcst_pazienti.2021-01-19-1533.data.5620a154-ad1f-4533-a75a-f8760c54d626.txt,1,56,2,0,9,shape,triangle,2,yellow,1951,1,2,0,0,0
14,1,0,10,shape,circle,4,green,2646,1,1,0,0,0,wcst_pazienti.2021-01-19-1533.data.5620a154-ad1f-4533-a75a-f8760c54d626.txt,1,14,1,0,10,shape,circle,4,green,2646,1,1,0,0,0
62,4,2,1,number,triangle,4,green,1937,2,2,1,1,0,wcst_pazienti.2021-01-19-1533.data.5620a154-ad1f-4533-a75a-f8760c54d626.txt,2,62,4,2,1,number,triangle,4,green,1937,2,2,1,1,0
58,3,2,2,number,triangle,3,green,4207,1,3,0,0,0,wcst_pazienti.2021-01-19-1533.data.5620a154-ad1f-4533-a75a-f8760c54d626.txt,2,58,3,2,2,number,triangle,3,green,4207,1,3,0,0,0
26,3,3,3,number,cross,3,green,2588,1,3,0,0,0,wcst_pazienti.2021-01-19-1533.data.5620a154-ad1f-4533-a75a-f8760c54d626.txt,2,26,3,3,3,number,cross,3,green,2588,1,3,0,0,0
30,4,3,4,number,cross,4,green,1585,1,4,0,0,0,wcst_pazienti.2021-01-19-1533.data.5620a154-ad1f-4533-a75a-f8760c54d626.txt,2,30,4,3,4,number,cross,4,green,1585,1,4,0,0,0
50,1,2,5,number,triangle,1,green,1586,1,1,0,0,0,wcst_pazienti.2021-01-19-1533.data.5620a154-ad1f-4533-a75a-f8760c54d626.txt,2,50,1,2,5,number,triangle,1,green,1586,1,1,0,0,0
17,1,3,6,number,cross,1,blue,1992,1,1,0,0,0,wcst_pazienti.2021-01-19-1533.data.5620a154-ad1f-4533-a75a-f8760c54d626.txt,2,17,1,3,6,number,cross,1,blue,1992,1,1,0,0,0
11,3,1,7,number,circle,3,red,1520,1,3,0,0,0,wcst_pazienti.2021-01-19-1533.data.5620a154-ad1f-4533-a75a-f8760c54d626.txt,2,11,3,1,7,number,circle,3,red,1520,1,3,0,0,0
53,2,2,8,number,triangle,2,blue,1325,1,2,0,0,0,wcst_pazienti.2021-01-19-1533.data.5620a154-ad1f-4533-a75a-f8760c54d626.txt,2,53,2,2,8,number,triangle,2,blue,1325,1,2,0,0,0
16,4,1,9,number,circle,4,yellow,1251,1,4,0,0,0,wcst_pazienti.2021-01-19-1533.data.5620a154-ad1f-4533-a75a-f8760c54d626.txt,2,16,4,1,9,number,circle,4,yellow,1251,1,4,0,0,0
37,2,4,10,number,star,2,blue,1910,1,2,0,0,0,wcst_pazienti.2021-01-19-1533.data.5620a154-ad1f-4533-a75a-f8760c54d626.txt,2,37,2,4,10,number,star,2,blue,1910,1,2,0,0,0
46,2,4,1,color,star,4,green,1452,2,4,1,1,0,wcst_pazienti.2021-01-19-1533.data.5620a154-ad1f-4533-a75a-f8760c54d626.txt,3,46,2,4,1,color,star,4,green,1452,2,4,1,1,0
45,3,4,2,color,star,4,blue,3423,1,3,0,0,0,wcst_pazienti.2021-01-19-1533.data.5620a154-ad1f-4533-a75a-f8760c54d626.txt,3,45,3,4,2,color,star,4,blue,3423,1,3,0,0,0
27,1,3,3,color,cross,3,red,1176,1,1,0,0,0,wcst_pazienti.2021-01-19-1533.data.5620a154-ad1f-4533-a75a-f8760c54d626.txt,3,27,1,3,3,color,cross,3,red,1176,1,1,0,0,0
15,1,4,4,color,circle,4,red,1731,1,1,0,0,0,wcst_pazienti.2021-01-19-1533.data.5620a154-ad1f-4533-a75a-f8760c54d626.txt,3,15,1,4,4,color,circle,4,red,1731,1,1,0,0,0
19,1,1,5,color,cross,1,red,2172,1,1,0,0,0,wcst_pazienti.2021-01-19-1533.data.5620a154-ad1f-4533-a75a-f8760c54d626.txt,3,19,1,1,5,color,cross,1,red,2172,1,1,0,0,0
57,3,3,6,color,triangle,3,blue,1418,1,3,0,0,0,wcst_pazienti.2021-01-19-1533.data.5620a154-ad1f-4533-a75a-f8760c54d626.txt,3,57,3,3,6,color,triangle,3,blue,1418,1,3,0,0,0
22,2,2,7,color,cross,2,green,1198,1,2,0,0,0,wcst_pazienti.2021-01-19-1533.data.5620a154-ad1f-4533-a75a-f8760c54d626.txt,3,22,2,2,7,color,cross,2,green,1198,1,2,0,0,0
49,3,1,8,color,triangle,1,blue,1251,2,1,1,1,0,wcst_pazienti.2021-01-19-1533.data.5620a154-ad1f-4533-a75a-f8760c54d626.txt,3,49,3,1,8,color,triangle,1,blue,1251,2,1,1,1,0
51,1,1,9,color,triangle,1,red,1650,1,1,0,0,0,wcst_pazienti.2021-01-19-1533.data.5620a154-ad1f-4533-a75a-f8760c54d626.txt,3,51,1,1,9,color,triangle,1,red,1650,1,1,0,0,0
13,3,4,10,color,circle,4,blue,1584,1,3,0,0,0,wcst_pazienti.2021-01-19-1533.data.5620a154-ad1f-4533-a75a-f8760c54d626.txt,3,13,3,4,10,color,circle,4,blue,1584,1,3,0,0,0
32,3,4,1,shape,cross,4,yellow,2261,2,4,1,1,0,wcst_pazienti.2021-01-19-1533.data.5620a154-ad1f-4533-a75a-f8760c54d626.txt,4,32,3,4,1,shape,cross,4,yellow,2261,2,4,1,1,0
28,3,4,2,shape,cross,3,yellow,7143,1,3,0,0,0,wcst_pazienti.2021-01-19-1533.data.5620a154-ad1f-4533-a75a-f8760c54d626.txt,4,28,3,4,2,shape,cross,3,yellow,7143,1,3,0,0,0
23,3,1,3,shape,cross,2,red,2757,1,3,0,0,0,wcst_pazienti.2021-01-19-1533.data.5620a154-ad1f-4533-a75a-f8760c54d626.txt,4,23,3,1,3,shape,cross,2,red,2757,1,3,0,0,0
9,1,3,4,shape,circle,3,blue,1776,1,1,0,0,0,wcst_pazienti.2021-01-19-1533.data.5620a154-ad1f-4533-a75a-f8760c54d626.txt,4,9,1,3,4,shape,circle,3,blue,1776,1,1,0,0,0
64,2,4,5,shape,triangle,4,yellow,1701,1,2,0,0,0,wcst_pazienti.2021-01-19-1533.data.5620a154-ad1f-4533-a75a-f8760c54d626.txt,4,64,2,4,5,shape,triangle,4,yellow,1701,1,2,0,0,0
36,4,4,6,shape,star,1,yellow,1616,1,4,0,0,0,wcst_pazienti.2021-01-19-1533.data.5620a154-ad1f-4533-a75a-f8760c54d626.txt,4,36,4,4,6,shape,star,1,yellow,1616,1,4,0,0,0
63,2,1,7,shape,triangle,4,red,1889,1,2,0,0,0,wcst_pazienti.2021-01-19-1533.data.5620a154-ad1f-4533-a75a-f8760c54d626.txt,4,63,2,1,7,shape,triangle,4,red,1889,1,2,0,0,0
59,2,1,8,shape,triangle,3,red,1805,1,2,0,0,0,wcst_pazienti.2021-01-19-1533.data.5620a154-ad1f-4533-a75a-f8760c54d626.txt,4,59,2,1,8,shape,triangle,3,red,1805,1,2,0,0,0
20,3,4,9,shape,cross,1,yellow,2128,1,3,0,0,0,wcst_pazienti.2021-01-19-1533.data.5620a154-ad1f-4533-a75a-f8760c54d626.txt,4,20,3,4,9,shape,cross,1,yellow,2128,1,3,0,0,0
2,1,2,10,shape,circle,1,green,2283,1,1,0,0,0,wcst_pazienti.2021-01-19-1533.data.5620a154-ad1f-4533-a75a-f8760c54d626.txt,4,2,1,2,10,shape,circle,1,green,2283,1,1,0,0,0
24,2,3,1,number,cross,2,yellow,2208,2,3,1,1,0,wcst_pazienti.2021-01-19-1533.data.5620a154-ad1f-4533-a75a-f8760c54d626.txt,5,24,2,3,1,number,cross,2,yellow,2208,2,3,1,1,0
5,2,1,2,number,circle,2,blue,5889,2,3,1,0,1,wcst_pazienti.2021-01-19-1533.data.5620a154-ad1f-4533-a75a-f8760c54d626.txt,5,5,2,1,2,number,circle,2,blue,5889,2,3,1,0,1
42,3,4,3,number,star,3,green,10000,3,3,1,0,1,wcst_pazienti.2021-01-19-1533.data.5620a154-ad1f-4533-a75a-f8760c54d626.txt,5,42,3,4,3,number,star,3,green,10000,3,3,1,0,1
10,3,1,4,number,circle,3,green,1446,1,3,0,0,0,wcst_pazienti.2021-01-19-1533.data.5620a154-ad1f-4533-a75a-f8760c54d626.txt,5,10,3,1,4,number,circle,3,green,1446,1,3,0,0,0
29,4,3,5,number,cross,4,blue,1834,1,4,0,0,0,wcst_pazienti.2021-01-19-1533.data.5620a154-ad1f-4533-a75a-f8760c54d626.txt,5,29,4,3,5,number,cross,4,blue,1834,1,4,0,0,0
47,4,4,6,number,star,4,red,1140,1,4,0,0,0,wcst_pazienti.2021-01-19-1533.data.5620a154-ad1f-4533-a75a-f8760c54d626.txt,5,47,4,4,6,number,star,4,red,1140,1,4,0,0,0
31,4,3,7,number,cross,4,red,1437,1,4,0,0,0,wcst_pazienti.2021-01-19-1533.data.5620a154-ad1f-4533-a75a-f8760c54d626.txt,5,31,4,3,7,number,cross,4,red,1437,1,4,0,0,0
38,2,4,8,number,star,2,green,1546,1,2,0,0,0,wcst_pazienti.2021-01-19-1533.data.5620a154-ad1f-4533-a75a-f8760c54d626.txt,5,38,2,4,8,number,star,2,green,1546,1,2,0,0,0
21,2,3,9,number,cross,2,blue,1193,1,2,0,0,0,wcst_pazienti.2021-01-19-1533.data.5620a154-ad1f-4533-a75a-f8760c54d626.txt,5,21,2,3,9,number,cross,2,blue,1193,1,2,0,0,0
6,2,1,10,number,circle,2,green,1301,1,2,0,0,0,wcst_pazienti.2021-01-19-1533.data.5620a154-ad1f-4533-a75a-f8760c54d626.txt,5,6,2,1,10,number,circle,2,green,1301,1,2,0,0,0
12,4,3,1,color,circle,3,yellow,1192,2,3,1,1,0,wcst_pazienti.2021-01-19-1533.data.5620a154-ad1f-4533-a75a-f8760c54d626.txt,6,12,4,3,1,color,circle,3,yellow,1192,2,3,1,1,0
61,3,4,2,color,triangle,4,blue,2146,1,3,0,0,0,wcst_pazienti.2021-01-19-1533.data.5620a154-ad1f-4533-a75a-f8760c54d626.txt,6,61,3,4,2,color,triangle,4,blue,2146,1,3,0,0,0
55,1,2,3,color,triangle,2,red,1640,1,1,0,0,0,wcst_pazienti.2021-01-19-1533.data.5620a154-ad1f-4533-a75a-f8760c54d626.txt,6,55,1,2,3,color,triangle,2,red,1640,1,1,0,0,0
41,3,3,4,color,star,3,blue,2290,1,3,0,0,0,wcst_pazienti.2021-01-19-1533.data.5620a154-ad1f-4533-a75a-f8760c54d626.txt,6,41,3,3,4,color,star,3,blue,2290,1,3,0,0,0
44,4,3,5,color,star,3,yellow,1196,1,4,0,0,0,wcst_pazienti.2021-01-19-1533.data.5620a154-ad1f-4533-a75a-f8760c54d626.txt,6,44,4,3,5,color,star,3,yellow,1196,1,4,0,0,0
4,4,1,6,color,circle,1,yellow,2629,1,4,0,0,0,wcst_pazienti.2021-01-19-1533.data.5620a154-ad1f-4533-a75a-f8760c54d626.txt,6,4,4,1,6,color,circle,1,yellow,2629,1,4,0,0,0
60,4,3,7,color,triangle,3,yellow,1314,1,4,0,0,0,wcst_pazienti.2021-01-19-1533.data.5620a154-ad1f-4533-a75a-f8760c54d626.txt,6,60,4,3,7,color,triangle,3,yellow,1314,1,4,0,0,0
43,1,3,8,color,star,3,red,2541,1,1,0,0,0,wcst_pazienti.2021-01-19-1533.data.5620a154-ad1f-4533-a75a-f8760c54d626.txt,6,43,1,3,8,color,star,3,red,2541,1,1,0,0,0
8,4,2,9,color,circle,2,yellow,1621,1,4,0,0,0,wcst_pazienti.2021-01-19-1533.data.5620a154-ad1f-4533-a75a-f8760c54d626.txt,6,8,4,2,9,color,circle,2,yellow,1621,1,4,0,0,0
18,2,1,10,color,cross,1,green,1480,1,2,0,0,0,wcst_pazienti.2021-01-19-1533.data.5620a154-ad1f-4533-a75a-f8760c54d626.txt,6,18,2,1,10,color,cross,1,green,1480,1,2,0,0,0
40,4,0,1,shape,star,2,yellow,1802,2,2,1,0,1,wcst_pazienti.2021-01-19-1604.data.e4dfdc1b-891b-4516-860f-ec2251007c4f.txt,1,40,4,0,1,shape,star,2,yellow,1802,2,2,1,0,1
35,4,0,2,shape,star,1,red,4944,1,4,0,0,0,wcst_pazienti.2021-01-19-1604.data.e4dfdc1b-891b-4516-860f-ec2251007c4f.txt,1,35,4,0,2,shape,star,1,red,4944,1,4,0,0,0
52,2,0,3,shape,triangle,1,yellow,4003,1,2,0,0,0,wcst_pazienti.2021-01-19-1604.data.e4dfdc1b-891b-4516-860f-ec2251007c4f.txt,1,52,2,0,3,shape,triangle,1,yellow,4003,1,2,0,0,0
34,4,0,4,shape,star,1,green,1925,1,4,0,0,0,wcst_pazienti.2021-01-19-1604.data.e4dfdc1b-891b-4516-860f-ec2251007c4f.txt,1,34,4,0,4,shape,star,1,green,1925,1,4,0,0,0
33,4,0,5,shape,star,1,blue,4096,2,3,1,0,1,wcst_pazienti.2021-01-19-1604.data.e4dfdc1b-891b-4516-860f-ec2251007c4f.txt,1,33,4,0,5,shape,star,1,blue,4096,2,3,1,0,1
1,1,0,6,shape,circle,1,blue,2104,1,1,0,0,0,wcst_pazienti.2021-01-19-1604.data.e4dfdc1b-891b-4516-860f-ec2251007c4f.txt,1,1,1,0,6,shape,circle,1,blue,2104,1,1,0,0,0
39,4,0,7,shape,star,2,red,1254,1,4,0,0,0,wcst_pazienti.2021-01-19-1604.data.e4dfdc1b-891b-4516-860f-ec2251007c4f.txt,1,39,4,0,7,shape,star,2,red,1254,1,4,0,0,0
7,1,0,8,shape,circle,2,red,2580,1,1,0,0,0,wcst_pazienti.2021-01-19-1604.data.e4dfdc1b-891b-4516-860f-ec2251007c4f.txt,1,7,1,0,8,shape,circle,2,red,2580,1,1,0,0,0
56,2,0,9,shape,triangle,2,yellow,1570,1,2,0,0,0,wcst_pazienti.2021-01-19-1604.data.e4dfdc1b-891b-4516-860f-ec2251007c4f.txt,1,56,2,0,9,shape,triangle,2,yellow,1570,1,2,0,0,0
14,1,0,10,shape,circle,4,green,2075,1,1,0,0,0,wcst_pazienti.2021-01-19-1604.data.e4dfdc1b-891b-4516-860f-ec2251007c4f.txt,1,14,1,0,10,shape,circle,4,green,2075,1,1,0,0,0
62,4,2,1,number,triangle,4,green,1384,2,2,1,1,0,wcst_pazienti.2021-01-19-1604.data.e4dfdc1b-891b-4516-860f-ec2251007c4f.txt,2,62,4,2,1,number,triangle,4,green,1384,2,2,1,1,0
58,3,2,2,number,triangle,3,green,4111,2,2,1,1,0,wcst_pazienti.2021-01-19-1604.data.e4dfdc1b-891b-4516-860f-ec2251007c4f.txt,2,58,3,2,2,number,triangle,3,green,4111,2,2,1,1,0
26,3,3,3,number,cross,3,green,1380,1,3,0,0,0,wcst_pazienti.2021-01-19-1604.data.e4dfdc1b-891b-4516-860f-ec2251007c4f.txt,2,26,3,3,3,number,cross,3,green,1380,1,3,0,0,0
30,4,3,4,number,cross,4,green,2855,1,4,0,0,0,wcst_pazienti.2021-01-19-1604.data.e4dfdc1b-891b-4516-860f-ec2251007c4f.txt,2,30,4,3,4,number,cross,4,green,2855,1,4,0,0,0
50,1,2,5,number,triangle,1,green,1186,1,1,0,0,0,wcst_pazienti.2021-01-19-1604.data.e4dfdc1b-891b-4516-860f-ec2251007c4f.txt,2,50,1,2,5,number,triangle,1,green,1186,1,1,0,0,0
17,1,3,6,number,cross,1,blue,1431,1,1,0,0,0,wcst_pazienti.2021-01-19-1604.data.e4dfdc1b-891b-4516-860f-ec2251007c4f.txt,2,17,1,3,6,number,cross,1,blue,1431,1,1,0,0,0
11,3,1,7,number,circle,3,red,3028,1,3,0,0,0,wcst_pazienti.2021-01-19-1604.data.e4dfdc1b-891b-4516-860f-ec2251007c4f.txt,2,11,3,1,7,number,circle,3,red,3028,1,3,0,0,0
53,2,2,8,number,triangle,2,blue,1847,1,2,0,0,0,wcst_pazienti.2021-01-19-1604.data.e4dfdc1b-891b-4516-860f-ec2251007c4f.txt,2,53,2,2,8,number,triangle,2,blue,1847,1,2,0,0,0
16,4,1,9,number,circle,4,yellow,2031,1,4,0,0,0,wcst_pazienti.2021-01-19-1604.data.e4dfdc1b-891b-4516-860f-ec2251007c4f.txt,2,16,4,1,9,number,circle,4,yellow,2031,1,4,0,0,0
37,2,4,10,number,star,2,blue,2258,1,2,0,0,0,wcst_pazienti.2021-01-19-1604.data.e4dfdc1b-891b-4516-860f-ec2251007c4f.txt,2,37,2,4,10,number,star,2,blue,2258,1,2,0,0,0
46,2,4,1,color,star,4,green,2288,2,4,1,1,0,wcst_pazienti.2021-01-19-1604.data.e4dfdc1b-891b-4516-860f-ec2251007c4f.txt,3,46,2,4,1,color,star,4,green,2288,2,4,1,1,0
45,3,4,2,color,star,4,blue,4199,1,3,0,0,0,wcst_pazienti.2021-01-19-1604.data.e4dfdc1b-891b-4516-860f-ec2251007c4f.txt,3,45,3,4,2,color,star,4,blue,4199,1,3,0,0,0
27,1,3,3,color,cross,3,red,1165,1,1,0,0,0,wcst_pazienti.2021-01-19-1604.data.e4dfdc1b-891b-4516-860f-ec2251007c4f.txt,3,27,1,3,3,color,cross,3,red,1165,1,1,0,0,0
15,1,4,4,color,circle,4,red,1110,1,1,0,0,0,wcst_pazienti.2021-01-19-1604.data.e4dfdc1b-891b-4516-860f-ec2251007c4f.txt,3,15,1,4,4,color,circle,4,red,1110,1,1,0,0,0
19,1,1,5,color,cross,1,red,1021,1,1,0,0,0,wcst_pazienti.2021-01-19-1604.data.e4dfdc1b-891b-4516-860f-ec2251007c4f.txt,3,19,1,1,5,color,cross,1,red,1021,1,1,0,0,0
57,3,3,6,color,triangle,3,blue,1396,1,3,0,0,0,wcst_pazienti.2021-01-19-1604.data.e4dfdc1b-891b-4516-860f-ec2251007c4f.txt,3,57,3,3,6,color,triangle,3,blue,1396,1,3,0,0,0
22,2,2,7,color,cross,2,green,1209,1,2,0,0,0,wcst_pazienti.2021-01-19-1604.data.e4dfdc1b-891b-4516-860f-ec2251007c4f.txt,3,22,2,2,7,color,cross,2,green,1209,1,2,0,0,0
49,3,1,8,color,triangle,1,blue,1357,1,3,0,0,0,wcst_pazienti.2021-01-19-1604.data.e4dfdc1b-891b-4516-860f-ec2251007c4f.txt,3,49,3,1,8,color,triangle,1,blue,1357,1,3,0,0,0
51,1,1,9,color,triangle,1,red,2760,1,1,0,0,0,wcst_pazienti.2021-01-19-1604.data.e4dfdc1b-891b-4516-860f-ec2251007c4f.txt,3,51,1,1,9,color,triangle,1,red,2760,1,1,0,0,0
13,3,4,10,color,circle,4,blue,1840,1,3,0,0,0,wcst_pazienti.2021-01-19-1604.data.e4dfdc1b-891b-4516-860f-ec2251007c4f.txt,3,13,3,4,10,color,circle,4,blue,1840,1,3,0,0,0
32,3,4,1,shape,cross,4,yellow,2145,2,4,1,1,0,wcst_pazienti.2021-01-19-1604.data.e4dfdc1b-891b-4516-860f-ec2251007c4f.txt,4,32,3,4,1,shape,cross,4,yellow,2145,2,4,1,1,0
28,3,4,2,shape,cross,3,yellow,1076,1,3,0,0,0,wcst_pazienti.2021-01-19-1604.data.e4dfdc1b-891b-4516-860f-ec2251007c4f.txt,4,28,3,4,2,shape,cross,3,yellow,1076,1,3,0,0,0
23,3,1,3,shape,cross,2,red,1013,1,3,0,0,0,wcst_pazienti.2021-01-19-1604.data.e4dfdc1b-891b-4516-860f-ec2251007c4f.txt,4,23,3,1,3,shape,cross,2,red,1013,1,3,0,0,0
9,1,3,4,shape,circle,3,blue,1523,1,1,0,0,0,wcst_pazienti.2021-01-19-1604.data.e4dfdc1b-891b-4516-860f-ec2251007c4f.txt,4,9,1,3,4,shape,circle,3,blue,1523,1,1,0,0,0
64,2,4,5,shape,triangle,4,yellow,1113,1,2,0,0,0,wcst_pazienti.2021-01-19-1604.data.e4dfdc1b-891b-4516-860f-ec2251007c4f.txt,4,64,2,4,5,shape,triangle,4,yellow,1113,1,2,0,0,0
36,4,4,6,shape,star,1,yellow,1370,1,4,0,0,0,wcst_pazienti.2021-01-19-1604.data.e4dfdc1b-891b-4516-860f-ec2251007c4f.txt,4,36,4,4,6,shape,star,1,yellow,1370,1,4,0,0,0
63,2,1,7,shape,triangle,4,red,1240,1,2,0,0,0,wcst_pazienti.2021-01-19-1604.data.e4dfdc1b-891b-4516-860f-ec2251007c4f.txt,4,63,2,1,7,shape,triangle,4,red,1240,1,2,0,0,0
59,2,1,8,shape,triangle,3,red,1086,1,2,0,0,0,wcst_pazienti.2021-01-19-1604.data.e4dfdc1b-891b-4516-860f-ec2251007c4f.txt,4,59,2,1,8,shape,triangle,3,red,1086,1,2,0,0,0
20,3,4,9,shape,cross,1,yellow,1202,1,3,0,0,0,wcst_pazienti.2021-01-19-1604.data.e4dfdc1b-891b-4516-860f-ec2251007c4f.txt,4,20,3,4,9,shape,cross,1,yellow,1202,1,3,0,0,0
2,1,2,10,shape,circle,1,green,1242,1,1,0,0,0,wcst_pazienti.2021-01-19-1604.data.e4dfdc1b-891b-4516-860f-ec2251007c4f.txt,4,2,1,2,10,shape,circle,1,green,1242,1,1,0,0,0
24,2,3,1,number,cross,2,yellow,1506,2,3,1,1,0,wcst_pazienti.2021-01-19-1604.data.e4dfdc1b-891b-4516-860f-ec2251007c4f.txt,5,24,2,3,1,number,cross,2,yellow,1506,2,3,1,1,0
5,2,1,2,number,circle,2,blue,2243,1,2,0,0,0,wcst_pazienti.2021-01-19-1604.data.e4dfdc1b-891b-4516-860f-ec2251007c4f.txt,5,5,2,1,2,number,circle,2,blue,2243,1,2,0,0,0
42,3,4,3,number,star,3,green,1141,1,3,0,0,0,wcst_pazienti.2021-01-19-1604.data.e4dfdc1b-891b-4516-860f-ec2251007c4f.txt,5,42,3,4,3,number,star,3,green,1141,1,3,0,0,0
10,3,1,4,number,circle,3,green,1370,1,3,0,0,0,wcst_pazienti.2021-01-19-1604.data.e4dfdc1b-891b-4516-860f-ec2251007c4f.txt,5,10,3,1,4,number,circle,3,green,1370,1,3,0,0,0
29,4,3,5,number,cross,4,blue,1851,1,4,0,0,0,wcst_pazienti.2021-01-19-1604.data.e4dfdc1b-891b-4516-860f-ec2251007c4f.txt,5,29,4,3,5,number,cross,4,blue,1851,1,4,0,0,0
47,4,4,6,number,star,4,red,1213,1,4,0,0,0,wcst_pazienti.2021-01-19-1604.data.e4dfdc1b-891b-4516-860f-ec2251007c4f.txt,5,47,4,4,6,number,star,4,red,1213,1,4,0,0,0
31,4,3,7,number,cross,4,red,1091,1,4,0,0,0,wcst_pazienti.2021-01-19-1604.data.e4dfdc1b-891b-4516-860f-ec2251007c4f.txt,5,31,4,3,7,number,cross,4,red,1091,1,4,0,0,0
38,2,4,8,number,star,2,green,1169,1,2,0,0,0,wcst_pazienti.2021-01-19-1604.data.e4dfdc1b-891b-4516-860f-ec2251007c4f.txt,5,38,2,4,8,number,star,2,green,1169,1,2,0,0,0
21,2,3,9,number,cross,2,blue,1274,1,2,0,0,0,wcst_pazienti.2021-01-19-1604.data.e4dfdc1b-891b-4516-860f-ec2251007c4f.txt,5,21,2,3,9,number,cross,2,blue,1274,1,2,0,0,0
6,2,1,10,number,circle,2,green,1580,1,2,0,0,0,wcst_pazienti.2021-01-19-1604.data.e4dfdc1b-891b-4516-860f-ec2251007c4f.txt,5,6,2,1,10,number,circle,2,green,1580,1,2,0,0,0
12,4,3,1,color,circle,3,yellow,1669,2,3,1,1,0,wcst_pazienti.2021-01-19-1604.data.e4dfdc1b-891b-4516-860f-ec2251007c4f.txt,6,12,4,3,1,color,circle,3,yellow,1669,2,3,1,1,0
61,3,4,2,color,triangle,4,blue,1949,1,3,0,0,0,wcst_pazienti.2021-01-19-1604.data.e4dfdc1b-891b-4516-860f-ec2251007c4f.txt,6,61,3,4,2,color,triangle,4,blue,1949,1,3,0,0,0
55,1,2,3,color,triangle,2,red,1177,1,1,0,0,0,wcst_pazienti.2021-01-19-1604.data.e4dfdc1b-891b-4516-860f-ec2251007c4f.txt,6,55,1,2,3,color,triangle,2,red,1177,1,1,0,0,0
41,3,3,4,color,star,3,blue,1546,1,3,0,0,0,wcst_pazienti.2021-01-19-1604.data.e4dfdc1b-891b-4516-860f-ec2251007c4f.txt,6,41,3,3,4,color,star,3,blue,1546,1,3,0,0,0
44,4,3,5,color,star,3,yellow,2068,1,4,0,0,0,wcst_pazienti.2021-01-19-1604.data.e4dfdc1b-891b-4516-860f-ec2251007c4f.txt,6,44,4,3,5,color,star,3,yellow,2068,1,4,0,0,0
4,4,1,6,color,circle,1,yellow,1551,1,4,0,0,0,wcst_pazienti.2021-01-19-1604.data.e4dfdc1b-891b-4516-860f-ec2251007c4f.txt,6,4,4,1,6,color,circle,1,yellow,1551,1,4,0,0,0
60,4,3,7,color,triangle,3,yellow,1722,1,4,0,0,0,wcst_pazienti.2021-01-19-1604.data.e4dfdc1b-891b-4516-860f-ec2251007c4f.txt,6,60,4,3,7,color,triangle,3,yellow,1722,1,4,0,0,0
43,1,3,8,color,star,3,red,2418,1,1,0,0,0,wcst_pazienti.2021-01-19-1604.data.e4dfdc1b-891b-4516-860f-ec2251007c4f.txt,6,43,1,3,8,color,star,3,red,2418,1,1,0,0,0
8,4,2,9,color,circle,2,yellow,2819,1,4,0,0,0,wcst_pazienti.2021-01-19-1604.data.e4dfdc1b-891b-4516-860f-ec2251007c4f.txt,6,8,4,2,9,color,circle,2,yellow,2819,1,4,0,0,0
18,2,1,10,color,cross,1,green,2274,1,2,0,0,0,wcst_pazienti.2021-01-19-1604.data.e4dfdc1b-891b-4516-860f-ec2251007c4f.txt,6,18,2,1,10,color,cross,1,green,2274,1,2,0,0,0
40,4,0,1,shape,star,2,yellow,4616,1,4,0,0,0,wcst_pazienti.2021-01-19-1759.data.2a8cbcb6-ff4a-4e6a-b4e7-d5f04bfa1de6.txt,1,40,4,0,1,shape,star,2,yellow,4616,1,4,0,0,0
35,4,0,2,shape,star,1,red,5200,2,1,1,0,1,wcst_pazienti.2021-01-19-1759.data.2a8cbcb6-ff4a-4e6a-b4e7-d5f04bfa1de6.txt,1,35,4,0,2,shape,star,1,red,5200,2,1,1,0,1
52,2,0,3,shape,triangle,1,yellow,2461,1,2,0,0,0,wcst_pazienti.2021-01-19-1759.data.2a8cbcb6-ff4a-4e6a-b4e7-d5f04bfa1de6.txt,1,52,2,0,3,shape,triangle,1,yellow,2461,1,2,0,0,0
34,4,0,4,shape,star,1,green,2981,1,4,0,0,0,wcst_pazienti.2021-01-19-1759.data.2a8cbcb6-ff4a-4e6a-b4e7-d5f04bfa1de6.txt,1,34,4,0,4,shape,star,1,green,2981,1,4,0,0,0
33,4,0,5,shape,star,1,blue,1427,1,4,0,0,0,wcst_pazienti.2021-01-19-1759.data.2a8cbcb6-ff4a-4e6a-b4e7-d5f04bfa1de6.txt,1,33,4,0,5,shape,star,1,blue,1427,1,4,0,0,0
1,1,0,6,shape,circle,1,blue,6710,1,1,0,0,0,wcst_pazienti.2021-01-19-1759.data.2a8cbcb6-ff4a-4e6a-b4e7-d5f04bfa1de6.txt,1,1,1,0,6,shape,circle,1,blue,6710,1,1,0,0,0
39,4,0,7,shape,star,2,red,2234,1,4,0,0,0,wcst_pazienti.2021-01-19-1759.data.2a8cbcb6-ff4a-4e6a-b4e7-d5f04bfa1de6.txt,1,39,4,0,7,shape,star,2,red,2234,1,4,0,0,0
7,1,0,8,shape,circle,2,red,2088,1,1,0,0,0,wcst_pazienti.2021-01-19-1759.data.2a8cbcb6-ff4a-4e6a-b4e7-d5f04bfa1de6.txt,1,7,1,0,8,shape,circle,2,red,2088,1,1,0,0,0
56,2,0,9,shape,triangle,2,yellow,1510,1,2,0,0,0,wcst_pazienti.2021-01-19-1759.data.2a8cbcb6-ff4a-4e6a-b4e7-d5f04bfa1de6.txt,1,56,2,0,9,shape,triangle,2,yellow,1510,1,2,0,0,0
14,1,0,10,shape,circle,4,green,2311,1,1,0,0,0,wcst_pazienti.2021-01-19-1759.data.2a8cbcb6-ff4a-4e6a-b4e7-d5f04bfa1de6.txt,1,14,1,0,10,shape,circle,4,green,2311,1,1,0,0,0
62,4,2,1,number,triangle,4,green,1459,2,2,1,1,0,wcst_pazienti.2021-01-19-1759.data.2a8cbcb6-ff4a-4e6a-b4e7-d5f04bfa1de6.txt,2,62,4,2,1,number,triangle,4,green,1459,2,2,1,1,0
58,3,2,2,number,triangle,3,green,4167,1,3,0,0,0,wcst_pazienti.2021-01-19-1759.data.2a8cbcb6-ff4a-4e6a-b4e7-d5f04bfa1de6.txt,2,58,3,2,2,number,triangle,3,green,4167,1,3,0,0,0
26,3,3,3,number,cross,3,green,2119,1,3,0,0,0,wcst_pazienti.2021-01-19-1759.data.2a8cbcb6-ff4a-4e6a-b4e7-d5f04bfa1de6.txt,2,26,3,3,3,number,cross,3,green,2119,1,3,0,0,0
30,4,3,4,number,cross,4,green,1688,1,4,0,0,0,wcst_pazienti.2021-01-19-1759.data.2a8cbcb6-ff4a-4e6a-b4e7-d5f04bfa1de6.txt,2,30,4,3,4,number,cross,4,green,1688,1,4,0,0,0
50,1,2,5,number,triangle,1,green,1850,1,1,0,0,0,wcst_pazienti.2021-01-19-1759.data.2a8cbcb6-ff4a-4e6a-b4e7-d5f04bfa1de6.txt,2,50,1,2,5,number,triangle,1,green,1850,1,1,0,0,0
17,1,3,6,number,cross,1,blue,1215,1,1,0,0,0,wcst_pazienti.2021-01-19-1759.data.2a8cbcb6-ff4a-4e6a-b4e7-d5f04bfa1de6.txt,2,17,1,3,6,number,cross,1,blue,1215,1,1,0,0,0
11,3,1,7,number,circle,3,red,1371,1,3,0,0,0,wcst_pazienti.2021-01-19-1759.data.2a8cbcb6-ff4a-4e6a-b4e7-d5f04bfa1de6.txt,2,11,3,1,7,number,circle,3,red,1371,1,3,0,0,0
53,2,2,8,number,triangle,2,blue,1568,1,2,0,0,0,wcst_pazienti.2021-01-19-1759.data.2a8cbcb6-ff4a-4e6a-b4e7-d5f04bfa1de6.txt,2,53,2,2,8,number,triangle,2,blue,1568,1,2,0,0,0
16,4,1,9,number,circle,4,yellow,1511,1,4,0,0,0,wcst_pazienti.2021-01-19-1759.data.2a8cbcb6-ff4a-4e6a-b4e7-d5f04bfa1de6.txt,2,16,4,1,9,number,circle,4,yellow,1511,1,4,0,0,0
37,2,4,10,number,star,2,blue,1412,1,2,0,0,0,wcst_pazienti.2021-01-19-1759.data.2a8cbcb6-ff4a-4e6a-b4e7-d5f04bfa1de6.txt,2,37,2,4,10,number,star,2,blue,1412,1,2,0,0,0
46,2,4,1,color,star,4,green,1581,2,4,1,1,0,wcst_pazienti.2021-01-19-1759.data.2a8cbcb6-ff4a-4e6a-b4e7-d5f04bfa1de6.txt,3,46,2,4,1,color,star,4,green,1581,2,4,1,1,0
45,3,4,2,color,star,4,blue,3180,1,3,0,0,0,wcst_pazienti.2021-01-19-1759.data.2a8cbcb6-ff4a-4e6a-b4e7-d5f04bfa1de6.txt,3,45,3,4,2,color,star,4,blue,3180,1,3,0,0,0
27,1,3,3,color,cross,3,red,1525,1,1,0,0,0,wcst_pazienti.2021-01-19-1759.data.2a8cbcb6-ff4a-4e6a-b4e7-d5f04bfa1de6.txt,3,27,1,3,3,color,cross,3,red,1525,1,1,0,0,0
15,1,4,4,color,circle,4,red,1080,1,1,0,0,0,wcst_pazienti.2021-01-19-1759.data.2a8cbcb6-ff4a-4e6a-b4e7-d5f04bfa1de6.txt,3,15,1,4,4,color,circle,4,red,1080,1,1,0,0,0
19,1,1,5,color,cross,1,red,851,1,1,0,0,0,wcst_pazienti.2021-01-19-1759.data.2a8cbcb6-ff4a-4e6a-b4e7-d5f04bfa1de6.txt,3,19,1,1,5,color,cross,1,red,851,1,1,0,0,0
57,3,3,6,color,triangle,3,blue,1543,1,3,0,0,0,wcst_pazienti.2021-01-19-1759.data.2a8cbcb6-ff4a-4e6a-b4e7-d5f04bfa1de6.txt,3,57,3,3,6,color,triangle,3,blue,1543,1,3,0,0,0
22,2,2,7,color,cross,2,green,1647,1,2,0,0,0,wcst_pazienti.2021-01-19-1759.data.2a8cbcb6-ff4a-4e6a-b4e7-d5f04bfa1de6.txt,3,22,2,2,7,color,cross,2,green,1647,1,2,0,0,0
49,3,1,8,color,triangle,1,blue,1490,1,3,0,0,0,wcst_pazienti.2021-01-19-1759.data.2a8cbcb6-ff4a-4e6a-b4e7-d5f04bfa1de6.txt,3,49,3,1,8,color,triangle,1,blue,1490,1,3,0,0,0
51,1,1,9,color,triangle,1,red,1677,1,1,0,0,0,wcst_pazienti.2021-01-19-1759.data.2a8cbcb6-ff4a-4e6a-b4e7-d5f04bfa1de6.txt,3,51,1,1,9,color,triangle,1,red,1677,1,1,0,0,0
13,3,4,10,color,circle,4,blue,2136,1,3,0,0,0,wcst_pazienti.2021-01-19-1759.data.2a8cbcb6-ff4a-4e6a-b4e7-d5f04bfa1de6.txt,3,13,3,4,10,color,circle,4,blue,2136,1,3,0,0,0
32,3,4,1,shape,cross,4,yellow,1387,2,4,1,1,0,wcst_pazienti.2021-01-19-1759.data.2a8cbcb6-ff4a-4e6a-b4e7-d5f04bfa1de6.txt,4,32,3,4,1,shape,cross,4,yellow,1387,2,4,1,1,0
28,3,4,2,shape,cross,3,yellow,2441,1,3,0,0,0,wcst_pazienti.2021-01-19-1759.data.2a8cbcb6-ff4a-4e6a-b4e7-d5f04bfa1de6.txt,4,28,3,4,2,shape,cross,3,yellow,2441,1,3,0,0,0
23,3,1,3,shape,cross,2,red,1087,1,3,0,0,0,wcst_pazienti.2021-01-19-1759.data.2a8cbcb6-ff4a-4e6a-b4e7-d5f04bfa1de6.txt,4,23,3,1,3,shape,cross,2,red,1087,1,3,0,0,0
9,1,3,4,shape,circle,3,blue,1525,1,1,0,0,0,wcst_pazienti.2021-01-19-1759.data.2a8cbcb6-ff4a-4e6a-b4e7-d5f04bfa1de6.txt,4,9,1,3,4,shape,circle,3,blue,1525,1,1,0,0,0
64,2,4,5,shape,triangle,4,yellow,1956,1,2,0,0,0,wcst_pazienti.2021-01-19-1759.data.2a8cbcb6-ff4a-4e6a-b4e7-d5f04bfa1de6.txt,4,64,2,4,5,shape,triangle,4,yellow,1956,1,2,0,0,0
36,4,4,6,shape,star,1,yellow,1635,1,4,0,0,0,wcst_pazienti.2021-01-19-1759.data.2a8cbcb6-ff4a-4e6a-b4e7-d5f04bfa1de6.txt,4,36,4,4,6,shape,star,1,yellow,1635,1,4,0,0,0
63,2,1,7,shape,triangle,4,red,1786,1,2,0,0,0,wcst_pazienti.2021-01-19-1759.data.2a8cbcb6-ff4a-4e6a-b4e7-d5f04bfa1de6.txt,4,63,2,1,7,shape,triangle,4,red,1786,1,2,0,0,0
59,2,1,8,shape,triangle,3,red,1344,1,2,0,0,0,wcst_pazienti.2021-01-19-1759.data.2a8cbcb6-ff4a-4e6a-b4e7-d5f04bfa1de6.txt,4,59,2,1,8,shape,triangle,3,red,1344,1,2,0,0,0
20,3,4,9,shape,cross,1,yellow,2020,1,3,0,0,0,wcst_pazienti.2021-01-19-1759.data.2a8cbcb6-ff4a-4e6a-b4e7-d5f04bfa1de6.txt,4,20,3,4,9,shape,cross,1,yellow,2020,1,3,0,0,0
2,1,2,10,shape,circle,1,green,1398,1,1,0,0,0,wcst_pazienti.2021-01-19-1759.data.2a8cbcb6-ff4a-4e6a-b4e7-d5f04bfa1de6.txt,4,2,1,2,10,shape,circle,1,green,1398,1,1,0,0,0
24,2,3,1,number,cross,2,yellow,1774,2,3,1,1,0,wcst_pazienti.2021-01-19-1759.data.2a8cbcb6-ff4a-4e6a-b4e7-d5f04bfa1de6.txt,5,24,2,3,1,number,cross,2,yellow,1774,2,3,1,1,0
5,2,1,2,number,circle,2,blue,2442,1,2,0,0,0,wcst_pazienti.2021-01-19-1759.data.2a8cbcb6-ff4a-4e6a-b4e7-d5f04bfa1de6.txt,5,5,2,1,2,number,circle,2,blue,2442,1,2,0,0,0
42,3,4,3,number,star,3,green,1470,1,3,0,0,0,wcst_pazienti.2021-01-19-1759.data.2a8cbcb6-ff4a-4e6a-b4e7-d5f04bfa1de6.txt,5,42,3,4,3,number,star,3,green,1470,1,3,0,0,0
10,3,1,4,number,circle,3,green,1142,1,3,0,0,0,wcst_pazienti.2021-01-19-1759.data.2a8cbcb6-ff4a-4e6a-b4e7-d5f04bfa1de6.txt,5,10,3,1,4,number,circle,3,green,1142,1,3,0,0,0
29,4,3,5,number,cross,4,blue,1546,1,4,0,0,0,wcst_pazienti.2021-01-19-1759.data.2a8cbcb6-ff4a-4e6a-b4e7-d5f04bfa1de6.txt,5,29,4,3,5,number,cross,4,blue,1546,1,4,0,0,0
47,4,4,6,number,star,4,red,2205,1,4,0,0,0,wcst_pazienti.2021-01-19-1759.data.2a8cbcb6-ff4a-4e6a-b4e7-d5f04bfa1de6.txt,5,47,4,4,6,number,star,4,red,2205,1,4,0,0,0
31,4,3,7,number,cross,4,red,1787,1,4,0,0,0,wcst_pazienti.2021-01-19-1759.data.2a8cbcb6-ff4a-4e6a-b4e7-d5f04bfa1de6.txt,5,31,4,3,7,number,cross,4,red,1787,1,4,0,0,0
38,2,4,8,number,star,2,green,1317,1,2,0,0,0,wcst_pazienti.2021-01-19-1759.data.2a8cbcb6-ff4a-4e6a-b4e7-d5f04bfa1de6.txt,5,38,2,4,8,number,star,2,green,1317,1,2,0,0,0
21,2,3,9,number,cross,2,blue,965,1,2,0,0,0,wcst_pazienti.2021-01-19-1759.data.2a8cbcb6-ff4a-4e6a-b4e7-d5f04bfa1de6.txt,5,21,2,3,9,number,cross,2,blue,965,1,2,0,0,0
6,2,1,10,number,circle,2,green,816,1,2,0,0,0,wcst_pazienti.2021-01-19-1759.data.2a8cbcb6-ff4a-4e6a-b4e7-d5f04bfa1de6.txt,5,6,2,1,10,number,circle,2,green,816,1,2,0,0,0
12,4,3,1,color,circle,3,yellow,1533,2,3,1,1,0,wcst_pazienti.2021-01-19-1759.data.2a8cbcb6-ff4a-4e6a-b4e7-d5f04bfa1de6.txt,6,12,4,3,1,color,circle,3,yellow,1533,2,3,1,1,0
61,3,4,2,color,triangle,4,blue,2387,2,2,1,0,1,wcst_pazienti.2021-01-19-1759.data.2a8cbcb6-ff4a-4e6a-b4e7-d5f04bfa1de6.txt,6,61,3,4,2,color,triangle,4,blue,2387,2,2,1,0,1
55,1,2,3,color,triangle,2,red,2716,2,2,1,1,0,wcst_pazienti.2021-01-19-1759.data.2a8cbcb6-ff4a-4e6a-b4e7-d5f04bfa1de6.txt,6,55,1,2,3,color,triangle,2,red,2716,2,2,1,1,0
41,3,3,4,color,star,3,blue,5341,1,3,0,0,0,wcst_pazienti.2021-01-19-1759.data.2a8cbcb6-ff4a-4e6a-b4e7-d5f04bfa1de6.txt,6,41,3,3,4,color,star,3,blue,5341,1,3,0,0,0
44,4,3,5,color,star,3,yellow,2123,2,3,1,1,0,wcst_pazienti.2021-01-19-1759.data.2a8cbcb6-ff4a-4e6a-b4e7-d5f04bfa1de6.txt,6,44,4,3,5,color,star,3,yellow,2123,2,3,1,1,0
4,4,1,6,color,circle,1,yellow,1459,2,1,1,1,0,wcst_pazienti.2021-01-19-1759.data.2a8cbcb6-ff4a-4e6a-b4e7-d5f04bfa1de6.txt,6,4,4,1,6,color,circle,1,yellow,1459,2,1,1,1,0
60,4,3,7,color,triangle,3,yellow,2114,1,4,0,0,0,wcst_pazienti.2021-01-19-1759.data.2a8cbcb6-ff4a-4e6a-b4e7-d5f04bfa1de6.txt,6,60,4,3,7,color,triangle,3,yellow,2114,1,4,0,0,0
43,1,3,8,color,star,3,red,1649,1,1,0,0,0,wcst_pazienti.2021-01-19-1759.data.2a8cbcb6-ff4a-4e6a-b4e7-d5f04bfa1de6.txt,6,43,1,3,8,color,star,3,red,1649,1,1,0,0,0
8,4,2,9,color,circle,2,yellow,2183,1,4,0,0,0,wcst_pazienti.2021-01-19-1759.data.2a8cbcb6-ff4a-4e6a-b4e7-d5f04bfa1de6.txt,6,8,4,2,9,color,circle,2,yellow,2183,1,4,0,0,0
18,2,1,10,color,cross,1,green,2110,1,2,0,0,0,wcst_pazienti.2021-01-19-1759.data.2a8cbcb6-ff4a-4e6a-b4e7-d5f04bfa1de6.txt,6,18,2,1,10,color,cross,1,green,2110,1,2,0,0,0
40,4,0,1,shape,star,2,yellow,1955,1,4,0,0,0,wcst_pazienti.2021-01-20-1743.data.2f4a5ff9-7b13-463f-a4e0-9e0e4688c058.txt,1,40,4,0,1,shape,star,2,yellow,1955,1,4,0,0,0
35,4,0,2,shape,star,1,red,2068,1,4,0,0,0,wcst_pazienti.2021-01-20-1743.data.2f4a5ff9-7b13-463f-a4e0-9e0e4688c058.txt,1,35,4,0,2,shape,star,1,red,2068,1,4,0,0,0
52,2,0,3,shape,triangle,1,yellow,2957,1,2,0,0,0,wcst_pazienti.2021-01-20-1743.data.2f4a5ff9-7b13-463f-a4e0-9e0e4688c058.txt,1,52,2,0,3,shape,triangle,1,yellow,2957,1,2,0,0,0
34,4,0,4,shape,star,1,green,1816,1,4,0,0,0,wcst_pazienti.2021-01-20-1743.data.2f4a5ff9-7b13-463f-a4e0-9e0e4688c058.txt,1,34,4,0,4,shape,star,1,green,1816,1,4,0,0,0
33,4,0,5,shape,star,1,blue,1498,1,4,0,0,0,wcst_pazienti.2021-01-20-1743.data.2f4a5ff9-7b13-463f-a4e0-9e0e4688c058.txt,1,33,4,0,5,shape,star,1,blue,1498,1,4,0,0,0
1,1,0,6,shape,circle,1,blue,1671,1,1,0,0,0,wcst_pazienti.2021-01-20-1743.data.2f4a5ff9-7b13-463f-a4e0-9e0e4688c058.txt,1,1,1,0,6,shape,circle,1,blue,1671,1,1,0,0,0
39,4,0,7,shape,star,2,red,1626,1,4,0,0,0,wcst_pazienti.2021-01-20-1743.data.2f4a5ff9-7b13-463f-a4e0-9e0e4688c058.txt,1,39,4,0,7,shape,star,2,red,1626,1,4,0,0,0
7,1,0,8,shape,circle,2,red,1542,1,1,0,0,0,wcst_pazienti.2021-01-20-1743.data.2f4a5ff9-7b13-463f-a4e0-9e0e4688c058.txt,1,7,1,0,8,shape,circle,2,red,1542,1,1,0,0,0
56,2,0,9,shape,triangle,2,yellow,1851,1,2,0,0,0,wcst_pazienti.2021-01-20-1743.data.2f4a5ff9-7b13-463f-a4e0-9e0e4688c058.txt,1,56,2,0,9,shape,triangle,2,yellow,1851,1,2,0,0,0
14,1,0,10,shape,circle,4,green,2260,1,1,0,0,0,wcst_pazienti.2021-01-20-1743.data.2f4a5ff9-7b13-463f-a4e0-9e0e4688c058.txt,1,14,1,0,10,shape,circle,4,green,2260,1,1,0,0,0
62,4,2,1,number,triangle,4,green,1686,2,2,1,1,0,wcst_pazienti.2021-01-20-1743.data.2f4a5ff9-7b13-463f-a4e0-9e0e4688c058.txt,2,62,4,2,1,number,triangle,4,green,1686,2,2,1,1,0
58,3,2,2,number,triangle,3,green,3981,2,2,1,1,0,wcst_pazienti.2021-01-20-1743.data.2f4a5ff9-7b13-463f-a4e0-9e0e4688c058.txt,2,58,3,2,2,number,triangle,3,green,3981,2,2,1,1,0
26,3,3,3,number,cross,3,green,3034,2,2,1,0,1,wcst_pazienti.2021-01-20-1743.data.2f4a5ff9-7b13-463f-a4e0-9e0e4688c058.txt,2,26,3,3,3,number,cross,3,green,3034,2,2,1,0,1
30,4,3,4,number,cross,4,green,2409,1,4,0,0,0,wcst_pazienti.2021-01-20-1743.data.2f4a5ff9-7b13-463f-a4e0-9e0e4688c058.txt,2,30,4,3,4,number,cross,4,green,2409,1,4,0,0,0
50,1,2,5,number,triangle,1,green,1763,1,1,0,0,0,wcst_pazienti.2021-01-20-1743.data.2f4a5ff9-7b13-463f-a4e0-9e0e4688c058.txt,2,50,1,2,5,number,triangle,1,green,1763,1,1,0,0,0
17,1,3,6,number,cross,1,blue,839,1,1,0,0,0,wcst_pazienti.2021-01-20-1743.data.2f4a5ff9-7b13-463f-a4e0-9e0e4688c058.txt,2,17,1,3,6,number,cross,1,blue,839,1,1,0,0,0
11,3,1,7,number,circle,3,red,1572,1,3,0,0,0,wcst_pazienti.2021-01-20-1743.data.2f4a5ff9-7b13-463f-a4e0-9e0e4688c058.txt,2,11,3,1,7,number,circle,3,red,1572,1,3,0,0,0
53,2,2,8,number,triangle,2,blue,1369,1,2,0,0,0,wcst_pazienti.2021-01-20-1743.data.2f4a5ff9-7b13-463f-a4e0-9e0e4688c058.txt,2,53,2,2,8,number,triangle,2,blue,1369,1,2,0,0,0
16,4,1,9,number,circle,4,yellow,2206,1,4,0,0,0,wcst_pazienti.2021-01-20-1743.data.2f4a5ff9-7b13-463f-a4e0-9e0e4688c058.txt,2,16,4,1,9,number,circle,4,yellow,2206,1,4,0,0,0
37,2,4,10,number,star,2,blue,1523,1,2,0,0,0,wcst_pazienti.2021-01-20-1743.data.2f4a5ff9-7b13-463f-a4e0-9e0e4688c058.txt,2,37,2,4,10,number,star,2,blue,1523,1,2,0,0,0
46,2,4,1,color,star,4,green,1448,2,4,1,1,0,wcst_pazienti.2021-01-20-1743.data.2f4a5ff9-7b13-463f-a4e0-9e0e4688c058.txt,3,46,2,4,1,color,star,4,green,1448,2,4,1,1,0
45,3,4,2,color,star,4,blue,1727,1,3,0,0,0,wcst_pazienti.2021-01-20-1743.data.2f4a5ff9-7b13-463f-a4e0-9e0e4688c058.txt,3,45,3,4,2,color,star,4,blue,1727,1,3,0,0,0
27,1,3,3,color,cross,3,red,1738,1,1,0,0,0,wcst_pazienti.2021-01-20-1743.data.2f4a5ff9-7b13-463f-a4e0-9e0e4688c058.txt,3,27,1,3,3,color,cross,3,red,1738,1,1,0,0,0
15,1,4,4,color,circle,4,red,1020,1,1,0,0,0,wcst_pazienti.2021-01-20-1743.data.2f4a5ff9-7b13-463f-a4e0-9e0e4688c058.txt,3,15,1,4,4,color,circle,4,red,1020,1,1,0,0,0
19,1,1,5,color,cross,1,red,1185,1,1,0,0,0,wcst_pazienti.2021-01-20-1743.data.2f4a5ff9-7b13-463f-a4e0-9e0e4688c058.txt,3,19,1,1,5,color,cross,1,red,1185,1,1,0,0,0
57,3,3,6,color,triangle,3,blue,2299,1,3,0,0,0,wcst_pazienti.2021-01-20-1743.data.2f4a5ff9-7b13-463f-a4e0-9e0e4688c058.txt,3,57,3,3,6,color,triangle,3,blue,2299,1,3,0,0,0
22,2,2,7,color,cross,2,green,1553,1,2,0,0,0,wcst_pazienti.2021-01-20-1743.data.2f4a5ff9-7b13-463f-a4e0-9e0e4688c058.txt,3,22,2,2,7,color,cross,2,green,1553,1,2,0,0,0
49,3,1,8,color,triangle,1,blue,1405,2,1,1,1,0,wcst_pazienti.2021-01-20-1743.data.2f4a5ff9-7b13-463f-a4e0-9e0e4688c058.txt,3,49,3,1,8,color,triangle,1,blue,1405,2,1,1,1,0
51,1,1,9,color,triangle,1,red,1321,2,2,1,0,1,wcst_pazienti.2021-01-20-1743.data.2f4a5ff9-7b13-463f-a4e0-9e0e4688c058.txt,3,51,1,1,9,color,triangle,1,red,1321,2,2,1,0,1
13,3,4,10,color,circle,4,blue,2276,2,4,1,1,0,wcst_pazienti.2021-01-20-1743.data.2f4a5ff9-7b13-463f-a4e0-9e0e4688c058.txt,3,13,3,4,10,color,circle,4,blue,2276,2,4,1,1,0
32,3,4,1,shape,cross,4,yellow,1898,1,3,0,0,0,wcst_pazienti.2021-01-20-1743.data.2f4a5ff9-7b13-463f-a4e0-9e0e4688c058.txt,4,32,3,4,1,shape,cross,4,yellow,1898,1,3,0,0,0
28,3,4,2,shape,cross,3,yellow,1206,1,3,0,0,0,wcst_pazienti.2021-01-20-1743.data.2f4a5ff9-7b13-463f-a4e0-9e0e4688c058.txt,4,28,3,4,2,shape,cross,3,yellow,1206,1,3,0,0,0
23,3,1,3,shape,cross,2,red,1447,1,3,0,0,0,wcst_pazienti.2021-01-20-1743.data.2f4a5ff9-7b13-463f-a4e0-9e0e4688c058.txt,4,23,3,1,3,shape,cross,2,red,1447,1,3,0,0,0
9,1,3,4,shape,circle,3,blue,1564,1,1,0,0,0,wcst_pazienti.2021-01-20-1743.data.2f4a5ff9-7b13-463f-a4e0-9e0e4688c058.txt,4,9,1,3,4,shape,circle,3,blue,1564,1,1,0,0,0
64,2,4,5,shape,triangle,4,yellow,1457,1,2,0,0,0,wcst_pazienti.2021-01-20-1743.data.2f4a5ff9-7b13-463f-a4e0-9e0e4688c058.txt,4,64,2,4,5,shape,triangle,4,yellow,1457,1,2,0,0,0
36,4,4,6,shape,star,1,yellow,1740,1,4,0,0,0,wcst_pazienti.2021-01-20-1743.data.2f4a5ff9-7b13-463f-a4e0-9e0e4688c058.txt,4,36,4,4,6,shape,star,1,yellow,1740,1,4,0,0,0
63,2,1,7,shape,triangle,4,red,1742,1,2,0,0,0,wcst_pazienti.2021-01-20-1743.data.2f4a5ff9-7b13-463f-a4e0-9e0e4688c058.txt,4,63,2,1,7,shape,triangle,4,red,1742,1,2,0,0,0
59,2,1,8,shape,triangle,3,red,1533,1,2,0,0,0,wcst_pazienti.2021-01-20-1743.data.2f4a5ff9-7b13-463f-a4e0-9e0e4688c058.txt,4,59,2,1,8,shape,triangle,3,red,1533,1,2,0,0,0
20,3,4,9,shape,cross,1,yellow,1565,1,3,0,0,0,wcst_pazienti.2021-01-20-1743.data.2f4a5ff9-7b13-463f-a4e0-9e0e4688c058.txt,4,20,3,4,9,shape,cross,1,yellow,1565,1,3,0,0,0
2,1,2,10,shape,circle,1,green,1511,1,1,0,0,0,wcst_pazienti.2021-01-20-1743.data.2f4a5ff9-7b13-463f-a4e0-9e0e4688c058.txt,4,2,1,2,10,shape,circle,1,green,1511,1,1,0,0,0
24,2,3,1,number,cross,2,yellow,1730,2,3,1,1,0,wcst_pazienti.2021-01-20-1743.data.2f4a5ff9-7b13-463f-a4e0-9e0e4688c058.txt,5,24,2,3,1,number,cross,2,yellow,1730,2,3,1,1,0
5,2,1,2,number,circle,2,blue,1438,1,2,0,0,0,wcst_pazienti.2021-01-20-1743.data.2f4a5ff9-7b13-463f-a4e0-9e0e4688c058.txt,5,5,2,1,2,number,circle,2,blue,1438,1,2,0,0,0
42,3,4,3,number,star,3,green,1326,1,3,0,0,0,wcst_pazienti.2021-01-20-1743.data.2f4a5ff9-7b13-463f-a4e0-9e0e4688c058.txt,5,42,3,4,3,number,star,3,green,1326,1,3,0,0,0
10,3,1,4,number,circle,3,green,1254,1,3,0,0,0,wcst_pazienti.2021-01-20-1743.data.2f4a5ff9-7b13-463f-a4e0-9e0e4688c058.txt,5,10,3,1,4,number,circle,3,green,1254,1,3,0,0,0
29,4,3,5,number,cross,4,blue,1502,1,4,0,0,0,wcst_pazienti.2021-01-20-1743.data.2f4a5ff9-7b13-463f-a4e0-9e0e4688c058.txt,5,29,4,3,5,number,cross,4,blue,1502,1,4,0,0,0
47,4,4,6,number,star,4,red,1702,1,4,0,0,0,wcst_pazienti.2021-01-20-1743.data.2f4a5ff9-7b13-463f-a4e0-9e0e4688c058.txt,5,47,4,4,6,number,star,4,red,1702,1,4,0,0,0
31,4,3,7,number,cross,4,red,1623,1,4,0,0,0,wcst_pazienti.2021-01-20-1743.data.2f4a5ff9-7b13-463f-a4e0-9e0e4688c058.txt,5,31,4,3,7,number,cross,4,red,1623,1,4,0,0,0
38,2,4,8,number,star,2,green,2370,1,2,0,0,0,wcst_pazienti.2021-01-20-1743.data.2f4a5ff9-7b13-463f-a4e0-9e0e4688c058.txt,5,38,2,4,8,number,star,2,green,2370,1,2,0,0,0
21,2,3,9,number,cross,2,blue,1458,1,2,0,0,0,wcst_pazienti.2021-01-20-1743.data.2f4a5ff9-7b13-463f-a4e0-9e0e4688c058.txt,5,21,2,3,9,number,cross,2,blue,1458,1,2,0,0,0
6,2,1,10,number,circle,2,green,1213,1,2,0,0,0,wcst_pazienti.2021-01-20-1743.data.2f4a5ff9-7b13-463f-a4e0-9e0e4688c058.txt,5,6,2,1,10,number,circle,2,green,1213,1,2,0,0,0
12,4,3,1,color,circle,3,yellow,1626,2,3,1,1,0,wcst_pazienti.2021-01-20-1743.data.2f4a5ff9-7b13-463f-a4e0-9e0e4688c058.txt,6,12,4,3,1,color,circle,3,yellow,1626,2,3,1,1,0
61,3,4,2,color,triangle,4,blue,1905,2,2,1,0,1,wcst_pazienti.2021-01-20-1743.data.2f4a5ff9-7b13-463f-a4e0-9e0e4688c058.txt,6,61,3,4,2,color,triangle,4,blue,1905,2,2,1,0,1
55,1,2,3,color,triangle,2,red,1105,1,1,0,0,0,wcst_pazienti.2021-01-20-1743.data.2f4a5ff9-7b13-463f-a4e0-9e0e4688c058.txt,6,55,1,2,3,color,triangle,2,red,1105,1,1,0,0,0
41,3,3,4,color,star,3,blue,1554,1,3,0,0,0,wcst_pazienti.2021-01-20-1743.data.2f4a5ff9-7b13-463f-a4e0-9e0e4688c058.txt,6,41,3,3,4,color,star,3,blue,1554,1,3,0,0,0
44,4,3,5,color,star,3,yellow,2931,2,3,1,1,0,wcst_pazienti.2021-01-20-1743.data.2f4a5ff9-7b13-463f-a4e0-9e0e4688c058.txt,6,44,4,3,5,color,star,3,yellow,2931,2,3,1,1,0
4,4,1,6,color,circle,1,yellow,1228,2,1,1,1,0,wcst_pazienti.2021-01-20-1743.data.2f4a5ff9-7b13-463f-a4e0-9e0e4688c058.txt,6,4,4,1,6,color,circle,1,yellow,1228,2,1,1,1,0
60,4,3,7,color,triangle,3,yellow,1445,1,4,0,0,0,wcst_pazienti.2021-01-20-1743.data.2f4a5ff9-7b13-463f-a4e0-9e0e4688c058.txt,6,60,4,3,7,color,triangle,3,yellow,1445,1,4,0,0,0
43,1,3,8,color,star,3,red,2337,1,1,0,0,0,wcst_pazienti.2021-01-20-1743.data.2f4a5ff9-7b13-463f-a4e0-9e0e4688c058.txt,6,43,1,3,8,color,star,3,red,2337,1,1,0,0,0
8,4,2,9,color,circle,2,yellow,1461,1,4,0,0,0,wcst_pazienti.2021-01-20-1743.data.2f4a5ff9-7b13-463f-a4e0-9e0e4688c058.txt,6,8,4,2,9,color,circle,2,yellow,1461,1,4,0,0,0
18,2,1,10,color,cross,1,green,1258,1,2,0,0,0,wcst_pazienti.2021-01-20-1743.data.2f4a5ff9-7b13-463f-a4e0-9e0e4688c058.txt,6,18,2,1,10,color,cross,1,green,1258,1,2,0,0,0
40,4,0,1,shape,star,2,yellow,3687,1,4,0,0,0,wcst_pazienti.2021-01-20-1929.data.b70c864e-aa8a-4d72-b514-6e50fb1da547.txt,1,40,4,0,1,shape,star,2,yellow,3687,1,4,0,0,0
35,4,0,2,shape,star,1,red,3097,2,1,1,0,1,wcst_pazienti.2021-01-20-1929.data.b70c864e-aa8a-4d72-b514-6e50fb1da547.txt,1,35,4,0,2,shape,star,1,red,3097,2,1,1,0,1
52,2,0,3,shape,triangle,1,yellow,1855,2,4,1,0,1,wcst_pazienti.2021-01-20-1929.data.b70c864e-aa8a-4d72-b514-6e50fb1da547.txt,1,52,2,0,3,shape,triangle,1,yellow,1855,2,4,1,0,1
34,4,0,4,shape,star,1,green,2999,1,4,0,0,0,wcst_pazienti.2021-01-20-1929.data.b70c864e-aa8a-4d72-b514-6e50fb1da547.txt,1,34,4,0,4,shape,star,1,green,2999,1,4,0,0,0
33,4,0,5,shape,star,1,blue,1157,1,4,0,0,0,wcst_pazienti.2021-01-20-1929.data.b70c864e-aa8a-4d72-b514-6e50fb1da547.txt,1,33,4,0,5,shape,star,1,blue,1157,1,4,0,0,0
1,1,0,6,shape,circle,1,blue,3568,1,1,0,0,0,wcst_pazienti.2021-01-20-1929.data.b70c864e-aa8a-4d72-b514-6e50fb1da547.txt,1,1,1,0,6,shape,circle,1,blue,3568,1,1,0,0,0
39,4,0,7,shape,star,2,red,2892,1,4,0,0,0,wcst_pazienti.2021-01-20-1929.data.b70c864e-aa8a-4d72-b514-6e50fb1da547.txt,1,39,4,0,7,shape,star,2,red,2892,1,4,0,0,0
7,1,0,8,shape,circle,2,red,3703,1,1,0,0,0,wcst_pazienti.2021-01-20-1929.data.b70c864e-aa8a-4d72-b514-6e50fb1da547.txt,1,7,1,0,8,shape,circle,2,red,3703,1,1,0,0,0
56,2,0,9,shape,triangle,2,yellow,2076,1,2,0,0,0,wcst_pazienti.2021-01-20-1929.data.b70c864e-aa8a-4d72-b514-6e50fb1da547.txt,1,56,2,0,9,shape,triangle,2,yellow,2076,1,2,0,0,0
14,1,0,10,shape,circle,4,green,2625,1,1,0,0,0,wcst_pazienti.2021-01-20-1929.data.b70c864e-aa8a-4d72-b514-6e50fb1da547.txt,1,14,1,0,10,shape,circle,4,green,2625,1,1,0,0,0
62,4,2,1,number,triangle,4,green,2031,2,2,1,1,0,wcst_pazienti.2021-01-20-1929.data.b70c864e-aa8a-4d72-b514-6e50fb1da547.txt,2,62,4,2,1,number,triangle,4,green,2031,2,2,1,1,0
58,3,2,2,number,triangle,3,green,1305,2,2,1,1,0,wcst_pazienti.2021-01-20-1929.data.b70c864e-aa8a-4d72-b514-6e50fb1da547.txt,2,58,3,2,2,number,triangle,3,green,1305,2,2,1,1,0
26,3,3,3,number,cross,3,green,2171,1,3,0,0,0,wcst_pazienti.2021-01-20-1929.data.b70c864e-aa8a-4d72-b514-6e50fb1da547.txt,2,26,3,3,3,number,cross,3,green,2171,1,3,0,0,0
30,4,3,4,number,cross,4,green,2042,1,4,0,0,0,wcst_pazienti.2021-01-20-1929.data.b70c864e-aa8a-4d72-b514-6e50fb1da547.txt,2,30,4,3,4,number,cross,4,green,2042,1,4,0,0,0
50,1,2,5,number,triangle,1,green,1991,1,1,0,0,0,wcst_pazienti.2021-01-20-1929.data.b70c864e-aa8a-4d72-b514-6e50fb1da547.txt,2,50,1,2,5,number,triangle,1,green,1991,1,1,0,0,0
17,1,3,6,number,cross,1,blue,1781,1,1,0,0,0,wcst_pazienti.2021-01-20-1929.data.b70c864e-aa8a-4d72-b514-6e50fb1da547.txt,2,17,1,3,6,number,cross,1,blue,1781,1,1,0,0,0
11,3,1,7,number,circle,3,red,1727,1,3,0,0,0,wcst_pazienti.2021-01-20-1929.data.b70c864e-aa8a-4d72-b514-6e50fb1da547.txt,2,11,3,1,7,number,circle,3,red,1727,1,3,0,0,0
53,2,2,8,number,triangle,2,blue,1720,1,2,0,0,0,wcst_pazienti.2021-01-20-1929.data.b70c864e-aa8a-4d72-b514-6e50fb1da547.txt,2,53,2,2,8,number,triangle,2,blue,1720,1,2,0,0,0
16,4,1,9,number,circle,4,yellow,1743,1,4,0,0,0,wcst_pazienti.2021-01-20-1929.data.b70c864e-aa8a-4d72-b514-6e50fb1da547.txt,2,16,4,1,9,number,circle,4,yellow,1743,1,4,0,0,0
37,2,4,10,number,star,2,blue,1419,1,2,0,0,0,wcst_pazienti.2021-01-20-1929.data.b70c864e-aa8a-4d72-b514-6e50fb1da547.txt,2,37,2,4,10,number,star,2,blue,1419,1,2,0,0,0
46,2,4,1,color,star,4,green,2048,2,4,1,1,0,wcst_pazienti.2021-01-20-1929.data.b70c864e-aa8a-4d72-b514-6e50fb1da547.txt,3,46,2,4,1,color,star,4,green,2048,2,4,1,1,0
45,3,4,2,color,star,4,blue,1495,1,3,0,0,0,wcst_pazienti.2021-01-20-1929.data.b70c864e-aa8a-4d72-b514-6e50fb1da547.txt,3,45,3,4,2,color,star,4,blue,1495,1,3,0,0,0
27,1,3,3,color,cross,3,red,1564,1,1,0,0,0,wcst_pazienti.2021-01-20-1929.data.b70c864e-aa8a-4d72-b514-6e50fb1da547.txt,3,27,1,3,3,color,cross,3,red,1564,1,1,0,0,0
15,1,4,4,color,circle,4,red,851,1,1,0,0,0,wcst_pazienti.2021-01-20-1929.data.b70c864e-aa8a-4d72-b514-6e50fb1da547.txt,3,15,1,4,4,color,circle,4,red,851,1,1,0,0,0
19,1,1,5,color,cross,1,red,672,1,1,0,0,0,wcst_pazienti.2021-01-20-1929.data.b70c864e-aa8a-4d72-b514-6e50fb1da547.txt,3,19,1,1,5,color,cross,1,red,672,1,1,0,0,0
57,3,3,6,color,triangle,3,blue,2363,1,3,0,0,0,wcst_pazienti.2021-01-20-1929.data.b70c864e-aa8a-4d72-b514-6e50fb1da547.txt,3,57,3,3,6,color,triangle,3,blue,2363,1,3,0,0,0
22,2,2,7,color,cross,2,green,1706,1,2,0,0,0,wcst_pazienti.2021-01-20-1929.data.b70c864e-aa8a-4d72-b514-6e50fb1da547.txt,3,22,2,2,7,color,cross,2,green,1706,1,2,0,0,0
49,3,1,8,color,triangle,1,blue,3310,1,3,0,0,0,wcst_pazienti.2021-01-20-1929.data.b70c864e-aa8a-4d72-b514-6e50fb1da547.txt,3,49,3,1,8,color,triangle,1,blue,3310,1,3,0,0,0
51,1,1,9,color,triangle,1,red,685,2,3,1,0,1,wcst_pazienti.2021-01-20-1929.data.b70c864e-aa8a-4d72-b514-6e50fb1da547.txt,3,51,1,1,9,color,triangle,1,red,685,2,3,1,0,1
13,3,4,10,color,circle,4,blue,2902,1,3,0,0,0,wcst_pazienti.2021-01-20-1929.data.b70c864e-aa8a-4d72-b514-6e50fb1da547.txt,3,13,3,4,10,color,circle,4,blue,2902,1,3,0,0,0
32,3,4,1,shape,cross,4,yellow,2021,2,4,1,1,0,wcst_pazienti.2021-01-20-1929.data.b70c864e-aa8a-4d72-b514-6e50fb1da547.txt,4,32,3,4,1,shape,cross,4,yellow,2021,2,4,1,1,0
28,3,4,2,shape,cross,3,yellow,1512,1,3,0,0,0,wcst_pazienti.2021-01-20-1929.data.b70c864e-aa8a-4d72-b514-6e50fb1da547.txt,4,28,3,4,2,shape,cross,3,yellow,1512,1,3,0,0,0
23,3,1,3,shape,cross,2,red,1347,1,3,0,0,0,wcst_pazienti.2021-01-20-1929.data.b70c864e-aa8a-4d72-b514-6e50fb1da547.txt,4,23,3,1,3,shape,cross,2,red,1347,1,3,0,0,0
9,1,3,4,shape,circle,3,blue,2019,1,1,0,0,0,wcst_pazienti.2021-01-20-1929.data.b70c864e-aa8a-4d72-b514-6e50fb1da547.txt,4,9,1,3,4,shape,circle,3,blue,2019,1,1,0,0,0
64,2,4,5,shape,triangle,4,yellow,1879,1,2,0,0,0,wcst_pazienti.2021-01-20-1929.data.b70c864e-aa8a-4d72-b514-6e50fb1da547.txt,4,64,2,4,5,shape,triangle,4,yellow,1879,1,2,0,0,0
36,4,4,6,shape,star,1,yellow,2090,1,4,0,0,0,wcst_pazienti.2021-01-20-1929.data.b70c864e-aa8a-4d72-b514-6e50fb1da547.txt,4,36,4,4,6,shape,star,1,yellow,2090,1,4,0,0,0
63,2,1,7,shape,triangle,4,red,1956,1,2,0,0,0,wcst_pazienti.2021-01-20-1929.data.b70c864e-aa8a-4d72-b514-6e50fb1da547.txt,4,63,2,1,7,shape,triangle,4,red,1956,1,2,0,0,0
59,2,1,8,shape,triangle,3,red,1359,1,2,0,0,0,wcst_pazienti.2021-01-20-1929.data.b70c864e-aa8a-4d72-b514-6e50fb1da547.txt,4,59,2,1,8,shape,triangle,3,red,1359,1,2,0,0,0
20,3,4,9,shape,cross,1,yellow,2309,1,3,0,0,0,wcst_pazienti.2021-01-20-1929.data.b70c864e-aa8a-4d72-b514-6e50fb1da547.txt,4,20,3,4,9,shape,cross,1,yellow,2309,1,3,0,0,0
2,1,2,10,shape,circle,1,green,1543,1,1,0,0,0,wcst_pazienti.2021-01-20-1929.data.b70c864e-aa8a-4d72-b514-6e50fb1da547.txt,4,2,1,2,10,shape,circle,1,green,1543,1,1,0,0,0
24,2,3,1,number,cross,2,yellow,1408,2,3,1,1,0,wcst_pazienti.2021-01-20-1929.data.b70c864e-aa8a-4d72-b514-6e50fb1da547.txt,5,24,2,3,1,number,cross,2,yellow,1408,2,3,1,1,0
5,2,1,2,number,circle,2,blue,1186,1,2,0,0,0,wcst_pazienti.2021-01-20-1929.data.b70c864e-aa8a-4d72-b514-6e50fb1da547.txt,5,5,2,1,2,number,circle,2,blue,1186,1,2,0,0,0
42,3,4,3,number,star,3,green,1511,1,3,0,0,0,wcst_pazienti.2021-01-20-1929.data.b70c864e-aa8a-4d72-b514-6e50fb1da547.txt,5,42,3,4,3,number,star,3,green,1511,1,3,0,0,0
10,3,1,4,number,circle,3,green,862,1,3,0,0,0,wcst_pazienti.2021-01-20-1929.data.b70c864e-aa8a-4d72-b514-6e50fb1da547.txt,5,10,3,1,4,number,circle,3,green,862,1,3,0,0,0
29,4,3,5,number,cross,4,blue,1450,1,4,0,0,0,wcst_pazienti.2021-01-20-1929.data.b70c864e-aa8a-4d72-b514-6e50fb1da547.txt,5,29,4,3,5,number,cross,4,blue,1450,1,4,0,0,0
47,4,4,6,number,star,4,red,1098,1,4,0,0,0,wcst_pazienti.2021-01-20-1929.data.b70c864e-aa8a-4d72-b514-6e50fb1da547.txt,5,47,4,4,6,number,star,4,red,1098,1,4,0,0,0
31,4,3,7,number,cross,4,red,824,1,4,0,0,0,wcst_pazienti.2021-01-20-1929.data.b70c864e-aa8a-4d72-b514-6e50fb1da547.txt,5,31,4,3,7,number,cross,4,red,824,1,4,0,0,0
38,2,4,8,number,star,2,green,2086,1,2,0,0,0,wcst_pazienti.2021-01-20-1929.data.b70c864e-aa8a-4d72-b514-6e50fb1da547.txt,5,38,2,4,8,number,star,2,green,2086,1,2,0,0,0
21,2,3,9,number,cross,2,blue,1236,1,2,0,0,0,wcst_pazienti.2021-01-20-1929.data.b70c864e-aa8a-4d72-b514-6e50fb1da547.txt,5,21,2,3,9,number,cross,2,blue,1236,1,2,0,0,0
6,2,1,10,number,circle,2,green,1161,1,2,0,0,0,wcst_pazienti.2021-01-20-1929.data.b70c864e-aa8a-4d72-b514-6e50fb1da547.txt,5,6,2,1,10,number,circle,2,green,1161,1,2,0,0,0
12,4,3,1,color,circle,3,yellow,1579,2,3,1,1,0,wcst_pazienti.2021-01-20-1929.data.b70c864e-aa8a-4d72-b514-6e50fb1da547.txt,6,12,4,3,1,color,circle,3,yellow,1579,2,3,1,1,0
61,3,4,2,color,triangle,4,blue,1717,1,3,0,0,0,wcst_pazienti.2021-01-20-1929.data.b70c864e-aa8a-4d72-b514-6e50fb1da547.txt,6,61,3,4,2,color,triangle,4,blue,1717,1,3,0,0,0
55,1,2,3,color,triangle,2,red,1401,1,1,0,0,0,wcst_pazienti.2021-01-20-1929.data.b70c864e-aa8a-4d72-b514-6e50fb1da547.txt,6,55,1,2,3,color,triangle,2,red,1401,1,1,0,0,0
41,3,3,4,color,star,3,blue,2001,1,3,0,0,0,wcst_pazienti.2021-01-20-1929.data.b70c864e-aa8a-4d72-b514-6e50fb1da547.txt,6,41,3,3,4,color,star,3,blue,2001,1,3,0,0,0
44,4,3,5,color,star,3,yellow,2664,1,4,0,0,0,wcst_pazienti.2021-01-20-1929.data.b70c864e-aa8a-4d72-b514-6e50fb1da547.txt,6,44,4,3,5,color,star,3,yellow,2664,1,4,0,0,0
4,4,1,6,color,circle,1,yellow,1227,1,4,0,0,0,wcst_pazienti.2021-01-20-1929.data.b70c864e-aa8a-4d72-b514-6e50fb1da547.txt,6,4,4,1,6,color,circle,1,yellow,1227,1,4,0,0,0
60,4,3,7,color,triangle,3,yellow,781,1,4,0,0,0,wcst_pazienti.2021-01-20-1929.data.b70c864e-aa8a-4d72-b514-6e50fb1da547.txt,6,60,4,3,7,color,triangle,3,yellow,781,1,4,0,0,0
43,1,3,8,color,star,3,red,1618,1,1,0,0,0,wcst_pazienti.2021-01-20-1929.data.b70c864e-aa8a-4d72-b514-6e50fb1da547.txt,6,43,1,3,8,color,star,3,red,1618,1,1,0,0,0
8,4,2,9,color,circle,2,yellow,2176,1,4,0,0,0,wcst_pazienti.2021-01-20-1929.data.b70c864e-aa8a-4d72-b514-6e50fb1da547.txt,6,8,4,2,9,color,circle,2,yellow,2176,1,4,0,0,0
18,2,1,10,color,cross,1,green,1626,1,2,0,0,0,wcst_pazienti.2021-01-20-1929.data.b70c864e-aa8a-4d72-b514-6e50fb1da547.txt,6,18,2,1,10,color,cross,1,green,1626,1,2,0,0,0
40,4,0,1,shape,star,2,yellow,2791,1,4,0,0,0,wcst_pazienti.2021-01-22-1120.data.dd0e7bd2-6422-42b7-a832-71fbb644bb0a.txt,1,40,4,0,1,shape,star,2,yellow,2791,1,4,0,0,0
35,4,0,2,shape,star,1,red,1612,1,4,0,0,0,wcst_pazienti.2021-01-22-1120.data.dd0e7bd2-6422-42b7-a832-71fbb644bb0a.txt,1,35,4,0,2,shape,star,1,red,1612,1,4,0,0,0
52,2,0,3,shape,triangle,1,yellow,2413,1,2,0,0,0,wcst_pazienti.2021-01-22-1120.data.dd0e7bd2-6422-42b7-a832-71fbb644bb0a.txt,1,52,2,0,3,shape,triangle,1,yellow,2413,1,2,0,0,0
34,4,0,4,shape,star,1,green,2248,1,4,0,0,0,wcst_pazienti.2021-01-22-1120.data.dd0e7bd2-6422-42b7-a832-71fbb644bb0a.txt,1,34,4,0,4,shape,star,1,green,2248,1,4,0,0,0
33,4,0,5,shape,star,1,blue,1775,1,4,0,0,0,wcst_pazienti.2021-01-22-1120.data.dd0e7bd2-6422-42b7-a832-71fbb644bb0a.txt,1,33,4,0,5,shape,star,1,blue,1775,1,4,0,0,0
1,1,0,6,shape,circle,1,blue,2154,1,1,0,0,0,wcst_pazienti.2021-01-22-1120.data.dd0e7bd2-6422-42b7-a832-71fbb644bb0a.txt,1,1,1,0,6,shape,circle,1,blue,2154,1,1,0,0,0
39,4,0,7,shape,star,2,red,2136,1,4,0,0,0,wcst_pazienti.2021-01-22-1120.data.dd0e7bd2-6422-42b7-a832-71fbb644bb0a.txt,1,39,4,0,7,shape,star,2,red,2136,1,4,0,0,0
7,1,0,8,shape,circle,2,red,1783,1,1,0,0,0,wcst_pazienti.2021-01-22-1120.data.dd0e7bd2-6422-42b7-a832-71fbb644bb0a.txt,1,7,1,0,8,shape,circle,2,red,1783,1,1,0,0,0
56,2,0,9,shape,triangle,2,yellow,1514,1,2,0,0,0,wcst_pazienti.2021-01-22-1120.data.dd0e7bd2-6422-42b7-a832-71fbb644bb0a.txt,1,56,2,0,9,shape,triangle,2,yellow,1514,1,2,0,0,0
14,1,0,10,shape,circle,4,green,2365,1,1,0,0,0,wcst_pazienti.2021-01-22-1120.data.dd0e7bd2-6422-42b7-a832-71fbb644bb0a.txt,1,14,1,0,10,shape,circle,4,green,2365,1,1,0,0,0
62,4,2,1,number,triangle,4,green,2435,2,2,1,1,0,wcst_pazienti.2021-01-22-1120.data.dd0e7bd2-6422-42b7-a832-71fbb644bb0a.txt,2,62,4,2,1,number,triangle,4,green,2435,2,2,1,1,0
58,3,2,2,number,triangle,3,green,981,2,2,1,1,0,wcst_pazienti.2021-01-22-1120.data.dd0e7bd2-6422-42b7-a832-71fbb644bb0a.txt,2,58,3,2,2,number,triangle,3,green,981,2,2,1,1,0
26,3,3,3,number,cross,3,green,1337,1,3,0,0,0,wcst_pazienti.2021-01-22-1120.data.dd0e7bd2-6422-42b7-a832-71fbb644bb0a.txt,2,26,3,3,3,number,cross,3,green,1337,1,3,0,0,0
30,4,3,4,number,cross,4,green,1953,1,4,0,0,0,wcst_pazienti.2021-01-22-1120.data.dd0e7bd2-6422-42b7-a832-71fbb644bb0a.txt,2,30,4,3,4,number,cross,4,green,1953,1,4,0,0,0
50,1,2,5,number,triangle,1,green,1648,1,1,0,0,0,wcst_pazienti.2021-01-22-1120.data.dd0e7bd2-6422-42b7-a832-71fbb644bb0a.txt,2,50,1,2,5,number,triangle,1,green,1648,1,1,0,0,0
17,1,3,6,number,cross,1,blue,1327,1,1,0,0,0,wcst_pazienti.2021-01-22-1120.data.dd0e7bd2-6422-42b7-a832-71fbb644bb0a.txt,2,17,1,3,6,number,cross,1,blue,1327,1,1,0,0,0
11,3,1,7,number,circle,3,red,1500,1,3,0,0,0,wcst_pazienti.2021-01-22-1120.data.dd0e7bd2-6422-42b7-a832-71fbb644bb0a.txt,2,11,3,1,7,number,circle,3,red,1500,1,3,0,0,0
53,2,2,8,number,triangle,2,blue,1471,1,2,0,0,0,wcst_pazienti.2021-01-22-1120.data.dd0e7bd2-6422-42b7-a832-71fbb644bb0a.txt,2,53,2,2,8,number,triangle,2,blue,1471,1,2,0,0,0
16,4,1,9,number,circle,4,yellow,2037,1,4,0,0,0,wcst_pazienti.2021-01-22-1120.data.dd0e7bd2-6422-42b7-a832-71fbb644bb0a.txt,2,16,4,1,9,number,circle,4,yellow,2037,1,4,0,0,0
37,2,4,10,number,star,2,blue,1204,1,2,0,0,0,wcst_pazienti.2021-01-22-1120.data.dd0e7bd2-6422-42b7-a832-71fbb644bb0a.txt,2,37,2,4,10,number,star,2,blue,1204,1,2,0,0,0
46,2,4,1,color,star,4,green,1488,2,4,1,1,0,wcst_pazienti.2021-01-22-1120.data.dd0e7bd2-6422-42b7-a832-71fbb644bb0a.txt,3,46,2,4,1,color,star,4,green,1488,2,4,1,1,0
45,3,4,2,color,star,4,blue,2927,1,3,0,0,0,wcst_pazienti.2021-01-22-1120.data.dd0e7bd2-6422-42b7-a832-71fbb644bb0a.txt,3,45,3,4,2,color,star,4,blue,2927,1,3,0,0,0
27,1,3,3,color,cross,3,red,1063,1,1,0,0,0,wcst_pazienti.2021-01-22-1120.data.dd0e7bd2-6422-42b7-a832-71fbb644bb0a.txt,3,27,1,3,3,color,cross,3,red,1063,1,1,0,0,0
15,1,4,4,color,circle,4,red,909,1,1,0,0,0,wcst_pazienti.2021-01-22-1120.data.dd0e7bd2-6422-42b7-a832-71fbb644bb0a.txt,3,15,1,4,4,color,circle,4,red,909,1,1,0,0,0
19,1,1,5,color,cross,1,red,1418,1,1,0,0,0,wcst_pazienti.2021-01-22-1120.data.dd0e7bd2-6422-42b7-a832-71fbb644bb0a.txt,3,19,1,1,5,color,cross,1,red,1418,1,1,0,0,0
57,3,3,6,color,triangle,3,blue,1471,1,3,0,0,0,wcst_pazienti.2021-01-22-1120.data.dd0e7bd2-6422-42b7-a832-71fbb644bb0a.txt,3,57,3,3,6,color,triangle,3,blue,1471,1,3,0,0,0
22,2,2,7,color,cross,2,green,1647,1,2,0,0,0,wcst_pazienti.2021-01-22-1120.data.dd0e7bd2-6422-42b7-a832-71fbb644bb0a.txt,3,22,2,2,7,color,cross,2,green,1647,1,2,0,0,0
49,3,1,8,color,triangle,1,blue,1276,1,3,0,0,0,wcst_pazienti.2021-01-22-1120.data.dd0e7bd2-6422-42b7-a832-71fbb644bb0a.txt,3,49,3,1,8,color,triangle,1,blue,1276,1,3,0,0,0
51,1,1,9,color,triangle,1,red,2413,1,1,0,0,0,wcst_pazienti.2021-01-22-1120.data.dd0e7bd2-6422-42b7-a832-71fbb644bb0a.txt,3,51,1,1,9,color,triangle,1,red,2413,1,1,0,0,0
13,3,4,10,color,circle,4,blue,4216,2,4,1,1,0,wcst_pazienti.2021-01-22-1120.data.dd0e7bd2-6422-42b7-a832-71fbb644bb0a.txt,3,13,3,4,10,color,circle,4,blue,4216,2,4,1,1,0
32,3,4,1,shape,cross,4,yellow,3398,1,3,0,0,0,wcst_pazienti.2021-01-22-1120.data.dd0e7bd2-6422-42b7-a832-71fbb644bb0a.txt,4,32,3,4,1,shape,cross,4,yellow,3398,1,3,0,0,0
28,3,4,2,shape,cross,3,yellow,3063,1,3,0,0,0,wcst_pazienti.2021-01-22-1120.data.dd0e7bd2-6422-42b7-a832-71fbb644bb0a.txt,4,28,3,4,2,shape,cross,3,yellow,3063,1,3,0,0,0
23,3,1,3,shape,cross,2,red,1693,1,3,0,0,0,wcst_pazienti.2021-01-22-1120.data.dd0e7bd2-6422-42b7-a832-71fbb644bb0a.txt,4,23,3,1,3,shape,cross,2,red,1693,1,3,0,0,0
9,1,3,4,shape,circle,3,blue,1455,1,1,0,0,0,wcst_pazienti.2021-01-22-1120.data.dd0e7bd2-6422-42b7-a832-71fbb644bb0a.txt,4,9,1,3,4,shape,circle,3,blue,1455,1,1,0,0,0
64,2,4,5,shape,triangle,4,yellow,1745,1,2,0,0,0,wcst_pazienti.2021-01-22-1120.data.dd0e7bd2-6422-42b7-a832-71fbb644bb0a.txt,4,64,2,4,5,shape,triangle,4,yellow,1745,1,2,0,0,0
36,4,4,6,shape,star,1,yellow,2195,1,4,0,0,0,wcst_pazienti.2021-01-22-1120.data.dd0e7bd2-6422-42b7-a832-71fbb644bb0a.txt,4,36,4,4,6,shape,star,1,yellow,2195,1,4,0,0,0
63,2,1,7,shape,triangle,4,red,2481,1,2,0,0,0,wcst_pazienti.2021-01-22-1120.data.dd0e7bd2-6422-42b7-a832-71fbb644bb0a.txt,4,63,2,1,7,shape,triangle,4,red,2481,1,2,0,0,0
59,2,1,8,shape,triangle,3,red,1513,1,2,0,0,0,wcst_pazienti.2021-01-22-1120.data.dd0e7bd2-6422-42b7-a832-71fbb644bb0a.txt,4,59,2,1,8,shape,triangle,3,red,1513,1,2,0,0,0
20,3,4,9,shape,cross,1,yellow,3646,2,4,1,1,0,wcst_pazienti.2021-01-22-1120.data.dd0e7bd2-6422-42b7-a832-71fbb644bb0a.txt,4,20,3,4,9,shape,cross,1,yellow,3646,2,4,1,1,0
2,1,2,10,shape,circle,1,green,4006,1,1,0,0,0,wcst_pazienti.2021-01-22-1120.data.dd0e7bd2-6422-42b7-a832-71fbb644bb0a.txt,4,2,1,2,10,shape,circle,1,green,4006,1,1,0,0,0
24,2,3,1,number,cross,2,yellow,2491,2,3,1,1,0,wcst_pazienti.2021-01-22-1120.data.dd0e7bd2-6422-42b7-a832-71fbb644bb0a.txt,5,24,2,3,1,number,cross,2,yellow,2491,2,3,1,1,0
5,2,1,2,number,circle,2,blue,2544,2,3,1,0,1,wcst_pazienti.2021-01-22-1120.data.dd0e7bd2-6422-42b7-a832-71fbb644bb0a.txt,5,5,2,1,2,number,circle,2,blue,2544,2,3,1,0,1
42,3,4,3,number,star,3,green,1459,1,3,0,0,0,wcst_pazienti.2021-01-22-1120.data.dd0e7bd2-6422-42b7-a832-71fbb644bb0a.txt,5,42,3,4,3,number,star,3,green,1459,1,3,0,0,0
10,3,1,4,number,circle,3,green,1717,1,3,0,0,0,wcst_pazienti.2021-01-22-1120.data.dd0e7bd2-6422-42b7-a832-71fbb644bb0a.txt,5,10,3,1,4,number,circle,3,green,1717,1,3,0,0,0
29,4,3,5,number,cross,4,blue,1322,1,4,0,0,0,wcst_pazienti.2021-01-22-1120.data.dd0e7bd2-6422-42b7-a832-71fbb644bb0a.txt,5,29,4,3,5,number,cross,4,blue,1322,1,4,0,0,0
47,4,4,6,number,star,4,red,1100,1,4,0,0,0,wcst_pazienti.2021-01-22-1120.data.dd0e7bd2-6422-42b7-a832-71fbb644bb0a.txt,5,47,4,4,6,number,star,4,red,1100,1,4,0,0,0
31,4,3,7,number,cross,4,red,1093,1,4,0,0,0,wcst_pazienti.2021-01-22-1120.data.dd0e7bd2-6422-42b7-a832-71fbb644bb0a.txt,5,31,4,3,7,number,cross,4,red,1093,1,4,0,0,0
38,2,4,8,number,star,2,green,2132,1,2,0,0,0,wcst_pazienti.2021-01-22-1120.data.dd0e7bd2-6422-42b7-a832-71fbb644bb0a.txt,5,38,2,4,8,number,star,2,green,2132,1,2,0,0,0
21,2,3,9,number,cross,2,blue,1053,1,2,0,0,0,wcst_pazienti.2021-01-22-1120.data.dd0e7bd2-6422-42b7-a832-71fbb644bb0a.txt,5,21,2,3,9,number,cross,2,blue,1053,1,2,0,0,0
6,2,1,10,number,circle,2,green,1202,1,2,0,0,0,wcst_pazienti.2021-01-22-1120.data.dd0e7bd2-6422-42b7-a832-71fbb644bb0a.txt,5,6,2,1,10,number,circle,2,green,1202,1,2,0,0,0
12,4,3,1,color,circle,3,yellow,8282,2,1,1,0,1,wcst_pazienti.2021-01-22-1120.data.dd0e7bd2-6422-42b7-a832-71fbb644bb0a.txt,6,12,4,3,1,color,circle,3,yellow,8282,2,1,1,0,1
61,3,4,2,color,triangle,4,blue,2488,2,4,1,1,0,wcst_pazienti.2021-01-22-1120.data.dd0e7bd2-6422-42b7-a832-71fbb644bb0a.txt,6,61,3,4,2,color,triangle,4,blue,2488,2,4,1,1,0
55,1,2,3,color,triangle,2,red,1229,1,1,0,0,0,wcst_pazienti.2021-01-22-1120.data.dd0e7bd2-6422-42b7-a832-71fbb644bb0a.txt,6,55,1,2,3,color,triangle,2,red,1229,1,1,0,0,0
41,3,3,4,color,star,3,blue,1269,1,3,0,0,0,wcst_pazienti.2021-01-22-1120.data.dd0e7bd2-6422-42b7-a832-71fbb644bb0a.txt,6,41,3,3,4,color,star,3,blue,1269,1,3,0,0,0
44,4,3,5,color,star,3,yellow,3278,1,4,0,0,0,wcst_pazienti.2021-01-22-1120.data.dd0e7bd2-6422-42b7-a832-71fbb644bb0a.txt,6,44,4,3,5,color,star,3,yellow,3278,1,4,0,0,0
4,4,1,6,color,circle,1,yellow,1271,1,4,0,0,0,wcst_pazienti.2021-01-22-1120.data.dd0e7bd2-6422-42b7-a832-71fbb644bb0a.txt,6,4,4,1,6,color,circle,1,yellow,1271,1,4,0,0,0
60,4,3,7,color,triangle,3,yellow,1012,1,4,0,0,0,wcst_pazienti.2021-01-22-1120.data.dd0e7bd2-6422-42b7-a832-71fbb644bb0a.txt,6,60,4,3,7,color,triangle,3,yellow,1012,1,4,0,0,0
